frame,sync_timestamp,accel_x,accel_y,accel_z,gyro_x,gyro_y,gyro_z,unix_timestamp
0,0.0,0.36432439486913004,10.126588464194015,1.8389667482434953,8.081488837274911,85.7998167778413,7.583847120716287,1750160376.566756
1,0.0333333333333333,0.13544575907766776,9.13272596029528,2.5958506479645913,50.35104312198097,82.88617406893492,-12.277302110007355,1750160376.6000893
2,0.0666666666666666,-1.0953059784301415,8.065440114473969,2.163595814577521,44.602643364833426,67.99415749659433,-16.74695517610691,1750160376.6334226
3,0.1,-2.112478456767901,8.124067932195468,1.432887367698685,15.909386556370325,42.83304747526023,-15.622212543925617,1750160376.666756
4,0.1333333333333333,-1.7839421058784601,8.932556097061275,1.0522124593043989,0.5884859910898004,22.55959106009935,-17.555958430289557,1750160376.7000897
5,0.1666666666666666,-0.870013285256378,9.77329685246518,1.0348880220497025,-4.518020392634174,16.417595748439453,-17.948404817806654,1750160376.7334228
6,0.2,0.07082337012733704,10.632925038405777,1.1283839799047253,-2.9931822337110336,20.43945858263911,-18.343297216389967,1750160376.766756
7,0.2333333333333333,0.6432024282751305,10.49085526438614,0.8907298411502989,-0.03090425568660793,29.437800088066048,-18.46253177264932,1750160376.8000894
8,0.2666666666666666,0.7336868340157613,10.400257789229249,1.6250773536494902,-22.737253518722575,47.62676876429287,-6.264503846381084,1750160376.833423
9,0.3,1.3264348187422739,11.897167481609554,3.9532562617340985,-54.02729084414522,73.54388424965848,10.166036336624106,1750160376.866756
10,0.3333333333333333,0.6652880184085687,11.35910193795079,5.363362658980726,-38.01716588191699,78.8106338126105,5.3398820935421565,1750160376.9000893
11,0.3666666666666666,-2.187654198880998,7.989010862627556,5.0171197811346495,-3.2457245037063807,55.78544064765546,-7.736625937358562,1750160376.9334226
12,0.4,-1.8347024321575216,8.118779419884131,4.641104274974586,-13.085060602628873,47.97813621990134,-2.257799533312745,1750160376.966756
13,0.4333333333333333,2.2659970238996388,11.572344572726768,4.182155699583877,-28.02099671611833,65.06912192950881,-2.485061127512283,1750160377.0000894
14,0.4666666666666667,3.114393231066926,11.546886743347418,2.9760050445825064,-7.0130534351131,72.07368630385405,-27.891659122160654,1750160377.0334227
15,0.5,0.7570893133526823,9.11232751381187,1.9416481358354334,3.0358437783665,74.71739620246323,-43.370719198614935,1750160377.066756
16,0.5333333333333333,-0.08703425884316018,9.058961358910176,1.6854256488048533,-4.441786994647143,85.56407471510654,-34.9122479680255,1750160377.1000893
17,0.5666666666666667,0.25345389775900556,9.671397383941656,1.6908520117627608,6.743094209809752,83.07402858674133,-30.023732552409122,1750160377.1334226
18,0.6,0.7884887869707919,8.932642447132597,1.5290179381657327,10.404177102854161,74.18463420997448,-29.99486637676555,1750160377.166756
19,0.6333333333333333,0.7584903279591766,8.614184810599037,1.2251030513969259,-9.530218888459066,77.21719499244031,-17.668486920776765,1750160377.2000897
20,0.6666666666666666,-1.080492185218744,8.788481936814579,0.9173316470081865,-12.393696128577826,70.37686633931123,-2.239643911891759,1750160377.2334228
21,0.7,-1.772852937842816,8.358066560837555,0.8366244754162345,6.787284209524925,45.70512176096214,5.323390120301698,1750160377.266756
22,0.7333333333333333,0.5535539251528174,8.369395051250612,0.9388136088993123,19.02655049169944,34.575990189785045,14.697807523589905,1750160377.3000894
23,0.7666666666666666,2.1913296044448525,9.609985014996987,0.6790128874433801,18.294141295915857,51.526478372365,24.30697379618307,1750160377.333423
24,0.8,1.488048002599407,11.117327751332786,0.4012726255462481,10.831091249551998,73.98213615605904,15.66253834928003,1750160377.366756
25,0.8333333333333334,0.13864559234503765,11.912592709645947,1.237265162532624,-0.9324248502801442,73.0023222897508,-11.76349804858503,1750160377.4000893
26,0.8666666666666667,-1.3944661339828848,11.797853761888437,2.758450752163442,-19.794672245451032,41.33913729437355,-35.749114709936435,1750160377.4334226
27,0.9,-2.4803339412697247,11.539880142373601,3.8965841627308544,-32.128599633624354,-4.006905879646829,-36.18561526506927,1750160377.466756
28,0.9333333333333332,-1.6423295517743155,11.069595330590436,4.864033768331227,-11.240907296288972,-29.9321264579289,-19.22678269303077,1750160377.5000894
29,0.9666666666666668,1.4881686320517535,8.837438581847865,5.187132674532104,14.164504821593042,-9.350017892371604,-21.042227246844327,1750160377.5334227
30,1.0,4.891189706458286,7.09895289553644,3.8173579203019816,-6.354062993122238,35.11410028494696,-51.56827115918734,1750160377.566756
31,1.0333333333333332,4.831876518341842,9.586290463103396,2.2232709035974643,-37.105525737996494,54.280777155372576,-55.695421193295275,1750160377.6000893
32,1.0666666666666669,1.3039000368878642,12.23996007661554,2.295275478562195,-21.397759385404008,49.459621040960606,-3.755562231222246,1750160377.6334226
33,1.1,-1.3500955408572706,10.366577050442363,2.842267314964665,11.517775430850326,47.593494216249155,42.70470884821524,1750160377.666756
34,1.1333333333333333,-1.500999159837412,8.075529651430802,2.453116697272921,17.99126976924893,39.41755817018906,36.2758142030068,1750160377.7000897
35,1.1666666666666667,-0.6348576126804852,8.56908017852658,1.9817659905356262,11.698971092074624,19.164047740948014,13.478594355522592,1750160377.7334228
36,1.2,0.33559127974580155,8.846572536062066,1.6190231377587274,12.798942973112363,9.184484432809214,7.07978141267238,1750160377.766756
37,1.2333333333333334,0.4176513285045793,7.942445313370332,0.603514621481401,13.195660997148801,6.965614373638402,2.0279207217905295,1750160377.8000894
38,1.2666666666666666,-0.4905992144670837,8.28003051123794,0.22827122468396377,0.9393648049716559,-6.156315058979065,-6.470179899967279,1750160377.833423
39,1.3,-0.5304937767702109,10.029132119205691,1.4010405259883656,-13.255180255857459,-12.753070512977525,-2.5501184129743706,1750160377.866756
40,1.3333333333333333,0.3923223783787833,10.668167206842144,2.0389484288243493,-10.989462807176798,2.912226140699496,12.624548652746475,1750160377.9000893
41,1.3666666666666667,0.2500205682643234,10.205969589343395,1.7315361766472703,-10.91953854220626,14.364179883356092,26.630802227769422,1750160377.9334226
42,1.4,-0.31007878353593527,11.57103945111716,2.575956543918651,-36.260925554935724,8.914874957231124,34.401936636105845,1750160377.966756
43,1.4333333333333331,0.3675384880570715,13.525182874342574,4.172681623276615,-48.89069847842044,4.104106096835633,29.766891554409877,1750160378.0000894
44,1.4666666666666666,0.4899907083960827,11.732438497142349,4.825816342532432,-17.470818235899408,-4.630902779165065,15.387524806976064,1750160378.0334227
45,1.5,-0.6521584012163602,8.204778332497844,4.628375261752366,8.206496005577796,-26.032721243382852,11.136518611427224,1750160378.066756
46,1.5333333333333332,-0.4855691775727471,8.247897877004362,3.931761397983581,-4.146800258383484,-39.26538542611749,14.611419095781264,1750160378.1000893
47,1.5666666666666669,0.7612751319039176,10.157285086427596,2.8349350760700185,-8.977243096193515,-33.93072812462652,3.7475813011137102,1750160378.1334226
48,1.6,0.9035192723280464,9.678073304103368,1.9858119685838627,10.089589860275385,-24.64670089783327,-9.273132968484914,1750160378.166756
49,1.6333333333333333,0.42389139071106924,8.44165009377598,1.8481824858924962,18.003044789363692,-19.52996495071776,-5.265476343677262,1750160378.2000897
50,1.6666666666666667,0.4089700961347475,8.647300475139819,1.9549413821639667,16.838058853821686,-18.667416256393466,0.34038636374456277,1750160378.2334228
51,1.7,0.8475402874087155,8.65953790075266,1.752043361329391,23.214988051824815,-19.53143315698607,2.438676071255818,1750160378.266756
52,1.7333333333333334,1.2380512347797894,8.170315421533527,1.3651363494858915,22.26569061093846,-15.555663801490667,12.60873650765392,1750160378.3000894
53,1.7666666666666666,1.3098087335437218,8.422866070995127,0.6438011891905192,16.680768581410785,-6.28888221628665,20.513094788393204,1750160378.333423
54,1.8,2.0009737142049993,8.911928981488543,0.064727904088375,16.56822291805712,6.674281548599563,16.381579188826386,1750160378.366756
55,1.8333333333333333,2.6547881742754886,9.66219851710887,1.1351482370655384,-0.5127273553989085,17.188704580387338,4.598823906693015,1750160378.4000893
56,1.8666666666666667,1.1536683906676808,11.093045520074387,2.4404492959683624,-21.37530839263077,6.671097104227087,-12.054495375343565,1750160378.4334226
57,1.9,-0.666167995263302,11.484795937956477,1.6271879301351841,-8.23957273270431,-19.864575979835756,-21.97177630944145,1750160378.466756
58,1.9333333333333331,-0.12433343232000443,11.161930169303718,1.220677305705631,-3.034891288608737,-33.742699056403964,-23.96035020759019,1750160378.5000894
59,1.9666666666666663,0.8489319218962129,12.502481539547155,3.4851335373932186,-28.76056645233004,-37.884435730051024,-37.67761190704775,1750160378.5334227
60,2.0,0.8382893616034296,12.423873299373032,5.365856642974531,-11.996154579502527,-40.315705163870064,-51.7253132905134,1750160378.566756
61,2.033333333333333,1.889032365067854,8.189626098303064,4.632406630895026,28.96038036427549,-18.394349083586413,-40.33960598801495,1750160378.6000893
62,2.0666666666666664,3.616847820028917,6.1180632827268235,2.894022576580239,5.496399568587529,18.488422610411206,-20.66422333160094,1750160378.6334226
63,2.1,2.560129352662674,9.262225803415305,1.9380992595122666,-27.823168854199466,28.430508780209237,-8.555554938863823,1750160378.666756
64,2.1333333333333333,-0.862378684789006,10.958297939558612,2.2561870978387817,-5.017031782785279,11.391639889308058,8.666881135409874,1750160378.7000897
65,2.1666666666666665,-2.005115914978236,9.413073072037449,2.989596400277213,10.387889652725764,-5.731628495046474,22.484500854391957,1750160378.7334228
66,2.2,0.1035878129036149,9.083790823972794,2.819730406347526,-0.3826274830192995,-12.809770092056763,18.58254773958283,1750160378.766756
67,2.2333333333333334,1.8043269653134968,9.642021856969835,2.1067839975438023,9.672246253425918,-6.231938938350618,11.759254680318161,1750160378.8000894
68,2.2666666666666666,1.7708602140728797,8.973640658534258,1.720480570995723,22.7355389940885,11.006649794852192,9.510423136621803,1750160378.833423
69,2.3,1.1836336120441473,8.420895306978803,1.1040844789199338,17.576681775017487,18.802004859256904,1.7129992103384895,1750160378.866756
70,2.333333333333333,-0.2703409934052106,8.908630090080587,0.648083826913169,14.128057827700065,4.571849413180089,-4.532024632241529,1750160378.9000893
71,2.3666666666666667,-1.5624461840430337,9.408910320624798,1.378010315157933,5.926509694460081,-11.354987294971792,2.347452608721362,1750160378.9334226
72,2.4,-0.3760843583242093,9.326713469626778,1.3845808348684208,-10.38928013282758,-9.689174203931588,10.269666484114625,1750160378.966756
73,2.433333333333333,1.2147314460470588,9.747950787551542,0.20866764882491262,-20.701252243179603,-2.554838736396753,13.771984197222455,1750160379.0000894
74,2.466666666666667,1.0481423899161257,11.645349426295542,1.6330636730370025,-38.90285673979117,8.823447109540389,26.513772002386045,1750160379.0334227
75,2.5,1.156634403277234,12.580896738055108,5.345702645490889,-51.81944963244604,30.197136728675307,38.06867625654812,1750160379.066756
76,2.533333333333333,0.8984166982220473,10.287933015747827,6.668779303438553,-32.081561901295075,29.88271896923949,32.145834179166684,1750160379.1000893
77,2.5666666666666664,-1.1235248838294656,8.472949952326731,5.198756243688964,-19.209740556735454,-0.6458841853768504,23.377105713191764,1750160379.1334226
78,2.6,-1.1858528121852627,10.31324153475948,3.455295722087206,-24.44748854226707,-16.787557558221586,12.448508589484268,1750160379.166756
79,2.6333333333333333,1.5490234109227898,11.720322382324337,2.2100022044568544,-4.624609536270161,-4.133280624048415,-12.251944039897728,1750160379.2000897
80,2.6666666666666665,2.5478712625764794,9.777611425423189,1.604639865516125,16.404248150143022,15.498663758143394,-28.239597489885234,1750160379.2334228
81,2.7,1.1132630019750644,8.033344845141016,1.6968377989312613,9.056661408627962,31.44494899447006,-21.926479254619522,1750160379.266756
82,2.7333333333333334,0.10798252728420404,8.51229546479935,1.944197438866871,8.716751802798761,34.105766372568596,-12.269133585573643,1750160379.3000894
83,2.7666666666666666,-0.09830830615226005,8.852312790041884,1.4912470743050625,24.721091851944166,22.925550660995913,-1.5772979147457507,1750160379.333423
84,2.8,0.146342310921494,8.045044215023722,0.3405686928050919,31.002684765951702,17.106549892116156,12.360663642712222,1750160379.366756
85,2.833333333333333,1.5006252538655265,8.118336451083465,0.36766254814437427,14.155068426867246,22.387073424747783,8.129163174945809,1750160379.4000893
86,2.8666666666666667,2.1280570303150643,9.910134350427887,1.7992064393171137,-11.655256588993934,25.93496306462979,-11.186742898905491,1750160379.4334226
87,2.9,-0.002976346387834561,11.260083311288282,2.0093159860265124,-14.066814483165272,16.160923050841834,-15.555183857460205,1750160379.466756
88,2.933333333333333,-1.9664209487782884,11.645556009282677,1.6063097447510546,-11.289532160260222,-11.068338412842309,-17.558090860959652,1750160379.5000894
89,2.966666666666667,-0.9834685378240864,12.233074734020505,3.210186563349949,-26.492690346794035,-38.59756827347153,-44.10219320485514,1750160379.5334227
90,3.0,1.2045695843687694,11.044438226800668,4.853385299012358,-15.322530375034919,-35.716983397502744,-68.14907340195579,1750160379.566756
91,3.033333333333333,3.040993061816934,8.218164501857514,4.117260496771986,10.661169221133115,-2.575574389322778,-58.42824829738964,1750160379.6000893
92,3.0666666666666664,3.4964979074434113,8.23619013296692,2.69978818489608,-1.6090557074003797,24.096189116421492,-25.15727942048902,1750160379.6334226
93,3.1,1.0391184153328434,10.111287947863367,2.2748760653855147,-10.410358304452597,20.274159225881583,11.35668018696732,1750160379.666756
94,3.1333333333333333,-1.9350558472005202,9.92169556382399,2.6952300844551718,9.015919197352444,-1.6484985711756233,32.138456711147896,1750160379.7000897
95,3.1666666666666665,-1.7841030131416054,9.18446526414568,3.1979676036129945,13.588827648155927,-21.265645892369875,29.9983249125673,1750160379.7334228
96,3.2,0.05938248199271867,9.18286935559421,2.7344272422393487,10.365788804611434,-29.530296219092776,21.842921195812025,1750160379.766756
97,3.2333333333333334,1.1151269752805688,8.639869926529373,1.566249937974134,13.68144078284377,-20.74819316401856,16.097401109001463,1750160379.8000894
98,3.2666666666666666,1.7074226501005088,8.389384382296265,0.8589485933482893,10.825174200209808,-2.2638933550906204,1.810411042481355,1750160379.833423
99,3.3,1.4209508148569021,9.113693735169537,0.6398893798115232,12.823424132559191,5.130337405372534,-14.536807250607898,1750160379.866756
100,3.333333333333333,0.41016936328129294,9.837156345471403,0.7869180842866409,13.07819887643372,6.058377821592186,-12.409263776969189,1750160379.9000893
101,3.3666666666666667,0.8002836222509275,10.101170486226705,1.2469306499611092,6.3281375621685605,15.22657174591379,-3.3417540035005593,1750160379.9334226
102,3.4,1.098846847543564,10.083957501096279,1.098552580300841,10.82253104049224,13.389611148584137,-4.605655185684072,1750160379.966756
103,3.433333333333333,-0.5952555242316794,10.992394781683096,1.3926729787326433,-10.680625761171243,-0.43341344508461077,11.40244567624757,1750160380.0000894
104,3.466666666666667,-0.9948571007703325,12.54114878603826,4.239854482426022,-59.21436501963653,4.854559295472329,46.61806756568804,1750160380.0334227
105,3.5,0.4849833288353106,11.247726585762276,6.779949429810802,-44.34567177003134,12.551452278648654,47.65653801639706,1750160380.066756
106,3.533333333333333,0.6538384387474638,8.118200448546137,5.406591421220267,4.572296676403965,0.7711958045875877,17.37293338332981,1750160380.1000893
107,3.5666666666666664,0.48455809433034835,8.839059451641956,3.04024128332976,-12.410255313950001,3.2008869149002077,2.385307180367392,1750160380.1334226
108,3.6,1.280819391123852,11.664312305386616,2.6415479620722335,-35.55860014902711,23.636388181075773,-6.560602260668169,1750160380.166756
109,3.633333333333333,1.4398774101158947,10.81669818356859,2.3912782736564155,-5.076592615801131,31.845690505420947,-23.78270829944061,1750160380.2000897
110,3.6666666666666665,0.9161697401373375,8.716332914778732,1.71166733712619,8.913241913061379,38.90884701969351,-27.560350952116327,1750160380.2334228
111,3.7,0.3583057058593301,9.166508279902528,1.7525322025195151,0.9676035356091957,52.236317454489274,-18.600030037842807,1750160380.266756
112,3.733333333333333,-0.04838833696304691,9.5675737154048,1.7747275730920884,20.110222572297975,50.28335880000185,-13.22599998834275,1750160380.3000894
113,3.7666666666666666,0.0162362749101012,8.530161992541759,1.2517467766944306,30.42696854717901,38.09663711625714,-8.623408747674421,1750160380.333423
114,3.8,-0.20407947075242328,8.075410341757905,0.7624520479841976,15.196884362511858,33.658673318180995,1.5679923847523416,1750160380.366756
115,3.8333333333333335,-0.277082578608023,8.470871177815877,0.3920079571393259,17.036214169067147,34.00790954973032,11.071033078612832,1750160380.4000893
116,3.8666666666666663,0.8087785314132119,9.374738240125522,0.748374082442826,17.043938579665117,30.024370477331544,2.351116458251949,1750160380.4334226
117,3.9,0.9916392559813378,10.64744587327704,1.778442265994274,-4.611230116358556,18.367695878009208,-19.705682307860144,1750160380.466756
118,3.933333333333333,-0.38475582977156647,10.725717416623905,1.4448811511482318,-3.466952923161497,8.927611351785957,-18.46494898378806,1750160380.5000894
119,3.966666666666667,-0.7508513493577414,10.299294257669745,0.6451462874822593,-2.4941588284036373,9.740010700053531,-0.894239501495993,1750160380.5334227
120,4.0,-0.22355297150904174,11.9832284724414,2.7210307300606607,-37.93298633055147,3.6589863117208448,-17.566000773647495,1750160380.566756
121,4.033333333333333,0.0612762734958309,13.055638790262869,5.566568139221116,-29.753033740546464,-10.005988468206901,-55.973705674868185,1750160380.6000893
122,4.066666666666666,1.4420769213244775,10.080263930355553,5.0829055331818,23.3180988480172,2.243389013385574,-60.703683938284506,1750160380.6334226
123,4.1,3.292919525179466,7.80445322910778,3.220080307028079,12.638441360298994,38.965388526090756,-34.478247377843154,1750160380.666756
124,4.133333333333333,2.7824598853533904,9.609931458134202,2.7294954768824415,-21.574470693432374,58.21877933964052,-9.363372204880132,1750160380.7000897
125,4.166666666666667,0.03304083794233936,10.600320832510327,2.524729912167426,0.6877332124367967,47.21792882065817,10.992548879915804,1750160380.7334228
126,4.2,-2.0817960403330185,9.192659835351098,2.256012280839233,16.381106791156366,26.79252370999697,24.72791652537441,1750160380.766756
127,4.233333333333333,-1.5338155863748886,8.829368103463644,2.35499590284764,2.6717408661650026,13.59733180671586,21.545279383231637,1750160380.8000894
128,4.266666666666667,0.6819077126319586,9.176713676500933,2.0797972307036,9.843136409906656,13.779839023605007,8.336025571394845,1750160380.833423
129,4.3,1.6779768398247004,8.876714607353957,1.618587992542324,19.903762835384544,24.61319162977637,-1.3444963506637857,1750160380.866756
130,4.333333333333333,0.777075101996429,8.847851526518417,1.2068150567295755,13.159125863739543,30.591867477046613,-8.114603840042614,1750160380.9000893
131,4.366666666666666,-0.43040496620878266,9.068976928400186,0.6802642687940388,11.536646111119186,19.20185971826209,-12.37142300859273,1750160380.9334226
132,4.4,-1.1667448786614822,9.09008437829022,0.9794216150810882,9.996532418763696,2.5724940586681466,-6.420514854617739,1750160380.966756
133,4.433333333333334,-1.3055224628247637,9.107893245196346,1.4023533515906337,-0.3360955933562715,-5.578901395418841,4.846256984681288,1750160381.0000894
134,4.466666666666667,-0.7887599909748412,9.846261636148794,0.9615541926145603,-12.53594000367132,-11.433572461080123,13.047007622543063,1750160381.0334227
135,4.5,0.7121608796119486,12.332811748841987,2.0365598332202346,-29.477124538433785,-3.9099414521684333,25.823546123794337,1750160381.066756
136,4.533333333333333,3.0494319244676236,14.268525365602553,4.69480746599231,-36.7908055324255,32.212851422480924,34.71494861402542,1750160381.1000893
137,4.566666666666666,2.9848850927875046,11.838268489973684,5.424748478512551,-16.582222916793825,59.353453831944975,18.0451792747141,1750160381.1334226
138,4.6,-0.6167762872681714,7.722170369545546,4.460815894721921,-0.6749139601792873,42.54741138807675,-3.2418048341709698,1750160381.166756
139,4.633333333333333,-2.104360438909656,7.749711013500271,4.094498152745917,-15.352470646070248,13.115721601135807,0.3842715311164586,1750160381.2000897
140,4.666666666666667,0.5484052342992508,10.637126852286139,3.758812840301368,-23.773648153206196,4.760892593988056,7.269546537102148,1750160381.2334228
141,4.7,1.830614477045605,11.04953454933454,2.7590008007726086,-2.54980156166085,8.760881105757196,-4.217407209739123,1750160381.266756
142,4.733333333333333,0.49096846362079316,9.027747877753205,1.9147363836365816,12.03013292234045,14.456991145572406,-15.421940475758037,1750160381.3000894
143,4.766666666666667,0.11086321708048887,8.085622089002616,1.6585067684009926,3.5913996530234273,22.504211199876863,-12.566403287376893,1750160381.333423
144,4.8,0.535405990802056,8.71637073238503,1.7093339458541896,1.166642870593204,26.467234016587852,-4.976078529093812,1750160381.366756
145,4.833333333333333,0.24581425031638962,9.32352160345836,1.665406197112328,11.517795423895706,21.938744699915368,0.6504363831433543,1750160381.4000893
146,4.866666666666666,0.035812104327271846,9.163087102256352,1.294835850471802,19.934779783748084,18.68311927800821,7.952482351455842,1750160381.4334226
147,4.9,0.43750828524530133,8.620715547306133,0.8178121401934875,23.78718050051898,22.33660411017262,15.36334762091169,1750160381.466756
148,4.933333333333334,1.1946899728135691,8.845800927383412,0.8142961056272616,15.850633447705142,22.281092442361548,11.233028441093808,1750160381.5000894
149,4.966666666666667,1.4395412344974872,9.691409947048733,1.5617642452399334,-0.14849677946993234,14.54167614478445,-0.7559784126452511,1750160381.5334227
150,5.0,-0.16923211759994167,10.049349240814406,2.653800448439223,-7.469172141594578,4.0433193996463785,-4.708977029862239,1750160381.566756
151,5.033333333333333,-2.4241477888000484,11.072131116666512,3.359234743513856,-17.715215434119532,-21.141578339727463,-12.430129361247323,1750160381.6000893
152,5.066666666666666,-2.048131323655457,13.095578993702507,3.356897793869475,-30.626202626304213,-60.65573335534281,-35.14405460876458,1750160381.6334226
153,5.1,1.1705360321118394,12.506830939460281,3.175282738673997,-12.795580795055482,-73.01350034267222,-40.29523715442962,1750160381.666756
154,5.133333333333333,3.5267939532768486,8.426417067711787,3.2135914741894007,19.487373779671262,-41.041943614848066,-14.588395145706592,1750160381.7000897
155,5.166666666666667,2.503862540407993,6.190141860169312,3.1816820127149357,15.532751787553561,-7.788901179721147,-1.4451078945262963,1750160381.7334228
156,5.2,-0.031432935108614446,8.582954727544,3.122653693656119,-9.021035331943365,-8.202587353577083,-14.561373608937345,1750160381.766756
157,5.233333333333333,-1.1441734416212632,11.016965148044697,3.136682533604087,-8.250163072801378,-28.532901137922718,-10.065142141690936,1750160381.8000894
158,5.266666666666667,-0.6147041153999824,10.286246559145688,2.923621249319478,5.070210737465437,-39.988712656649064,20.388152705498218,1750160381.833423
159,5.3,0.5162432753069734,9.191745824163402,2.5416608940101804,4.888104739946607,-33.40020486436514,33.042598109648125,1750160381.866756
160,5.333333333333333,1.6560808412844894,9.36550211745442,2.1867765086968705,6.308869543243125,-19.257424761267316,18.48562447378979,1750160381.9000893
161,5.366666666666666,1.845070306714316,9.385423744923575,1.8187012819824673,17.133649299146185,-7.827005200922931,6.362710896141052,1750160381.9334226
162,5.4,0.853915226550338,8.943774293700175,1.195828281731532,23.697547848447037,-4.231201278933897,1.2871120634812871,1750160381.966756
163,5.433333333333334,0.03447891079975354,8.469290167663612,0.45148637305985795,19.352333930521603,-8.472992204209792,-4.374783370301437,1750160382.0000894
164,5.466666666666667,-0.11232423444970996,8.456397664098434,0.6266276243303224,2.6420934350274954,-8.128836704617589,-1.3462074568008373,1750160382.0334227
165,5.5,-0.26549655639613745,9.187771950188866,1.4712049782585752,-11.860687654775925,-2.347639178447806,2.926129684004799,1750160382.066756
166,5.533333333333333,-0.025758863350610024,10.084167486460437,1.5127558310338016,-17.341676732783377,-3.6718067439961857,-0.6197015968217071,1750160382.1000893
167,5.566666666666666,1.2249031977465148,11.721488373269889,1.7283426247490752,-38.27889724394818,6.743795436055711,13.050202918734717,1750160382.1334226
168,5.6,1.719054588613429,13.540156872831162,3.5438815305713205,-55.88624441262042,36.55651584630895,34.92636886370853,1750160382.166756
169,5.633333333333333,-0.30932019778479425,12.029486680063275,5.181431473156382,-27.817862335019356,36.84076435509148,20.711304926263782,1750160382.2000897
170,5.666666666666667,-1.982358483948596,8.498737648817567,4.888279366550959,2.176760272189279,3.723890310240243,-2.9957170707044254,1750160382.2334228
171,5.7,-0.15253984821537292,8.523651204037415,3.6721744481186125,-10.161365691224386,-4.378333216438149,6.156423165870282,1750160382.266756
172,5.733333333333333,2.1831358183614187,10.853508454360309,2.833377367964932,-16.27405956698359,12.537546612888098,9.992043108507591,1750160382.3000894
173,5.766666666666667,1.8350195400040408,10.68689790136994,2.337283781634302,1.6684798883047867,19.474606838229345,-14.54093513698429,1750160382.333423
174,5.8,0.5973927337296534,9.221202855187306,1.987909748978208,1.6755306350744401,23.391649624428652,-26.61812895739232,1750160382.366756
175,5.833333333333333,-0.005838630041208482,8.937125305827687,1.8750580247255286,-1.869096614680861,27.112006217645543,-13.53739130509602,1750160382.4000893
176,5.866666666666666,-0.19476927515523698,8.858896926944352,1.7574544534394707,18.555919367451466,20.521511712794414,1.3012305353148759,1750160382.4334226
177,5.9,0.23216994061874405,8.561530200734852,1.4623905642807882,30.960355640773393,16.021768570157626,10.629431166478732,1750160382.466756
178,5.933333333333334,0.779168111006672,8.418650015205106,1.0196020784849589,23.633317767468398,20.269048998452796,16.408932400360104,1750160382.5000894
179,5.966666666666667,1.2701871618454281,8.479841206266208,0.4646202749949193,15.667817933643835,27.2842212779125,13.676879184902887,1750160382.5334227
180,6.0,1.9671980756073677,9.528854358215826,0.5194153931451444,0.8817835383098185,35.5693074936434,-0.22840600392090193,1750160382.566756
181,6.033333333333333,1.3021561823838013,10.642804764567904,1.5713678145822239,-11.314882592998767,35.63483200982723,-17.394529426526052,1750160382.6000893
182,6.066666666666666,-1.067252923426379,10.748355846972546,2.600368356216226,-8.739542432275098,19.457958984880186,-31.553653214546223,1750160382.6334226
183,6.1,-2.2834588863643006,12.120253077884094,3.1153018847524265,-16.65738722928569,-6.088938875758785,-45.734139397506475,1750160382.666756
184,6.133333333333333,-0.7772853777767291,13.810618641695346,3.6047128220008844,-21.65471118384382,-22.89517496565383,-50.27313563035403,1750160382.7000897
185,6.166666666666667,1.8432100785803438,11.329793156717537,3.8827768999664762,6.2207161647295885,-5.976454137595278,-33.61253418689357,1750160382.7334228
186,6.2,2.94582098909587,7.466036620004189,3.683956559918549,24.678317309120875,37.18522602708635,-17.53358597682465,1750160382.766756
187,6.233333333333333,1.339525771535711,7.768202334967224,3.374735682857241,8.969106862243928,61.155382658792206,-19.856088685777003,1750160382.8000894
188,6.266666666666667,-0.9947712704255172,9.643819029253795,2.985221196703443,-1.0915123807498865,53.04405357083918,-18.301803732601158,1750160382.833423
189,6.3,-1.4833205000577074,9.558063032213589,2.496561381674264,0.17683913293561293,40.68806095449219,-2.1138242524712636,1750160382.866756
190,6.333333333333333,-0.5534204222780454,9.40551970749833,2.406228931089996,-3.7876387777721297,37.26180749886966,6.549993700742808,1750160382.9000893
191,6.366666666666666,0.2037097581805139,9.794270523855852,2.6212397507068097,0.7674854440766428,39.78907164372744,-0.5689975985888234,1750160382.9334226
192,6.4,0.5227741470491314,9.271806280262677,2.4515425198846814,12.102023860519084,46.157645530897945,-9.521543063848926,1750160382.966756
193,6.433333333333334,0.36004346144331983,8.699566775185492,2.034553467570469,9.79744680169271,48.84202527448278,-11.940499266211194,1750160383.0000894
194,6.466666666666667,-0.3413644811519217,9.006751265618783,1.7915106707665678,2.1716277753620696,41.76357423608909,-12.427501042598776,1750160383.0334227
195,6.5,-0.9894006161993821,9.36319695029504,1.4048575065290427,6.546976086967376,28.65392421298372,-16.664868904002407,1750160383.066756
196,6.533333333333333,-1.0781967210018664,9.482282293974663,1.2297434821619744,10.495250312084316,17.816265190316603,-17.755812635188292,1750160383.1000893
197,6.566666666666666,-0.09616230718241031,9.63953822746075,2.061525873608204,3.0887111390096162,16.93971892696548,-10.588879492255728,1750160383.1334226
198,6.6,1.4350184256424199,9.565678803525556,2.5749774783415114,3.2557676162113607,22.25656920658387,-8.118510771429515,1750160383.166756
199,6.633333333333333,1.0845993384996744,9.69457848379908,1.6980083126157761,3.5897699472345286,21.158007608258252,-8.75750691997296,1750160383.2000897
200,6.666666666666667,-0.722576259397451,10.964957521372458,1.7578299155308978,-26.914339374017185,18.16168228958089,8.398304470969064,1750160383.2334228
201,6.7,-0.6266384128154581,11.918150751886992,3.724015879337256,-50.82985860740081,25.679241592639016,28.646205667259245,1750160383.266756
202,6.733333333333333,0.4839020186824642,10.237951854941123,4.690789719221884,-24.229220265017233,36.04341340980561,21.419331912754856,1750160383.3000894
203,6.766666666666667,0.3072903092961886,8.054108117531777,3.7659845347957885,-3.1996527315164194,42.85750772225598,6.120322455916092,1750160383.333423
204,6.8,0.4779225789693012,9.090793301317165,3.089302346118382,-24.305439638110176,51.46548816400365,7.689710825060447,1750160383.366756
205,6.833333333333333,1.156396620268591,11.446097071673343,2.9583183166411997,-29.69506850387723,56.65709106040299,4.89622029713076,1750160383.4000893
206,6.866666666666666,0.7614858814347286,11.361886723843945,2.4501986299412364,-4.339496303486482,58.45841027650633,-12.922049742020553,1750160383.4334226
207,6.9,0.5127960852042678,10.017406705195873,2.0529640590809306,7.360515735831669,67.32431787839457,-24.548714825603344,1750160383.466756
208,6.933333333333334,0.6810814212034909,9.490787032007127,1.9963938475991063,6.767347135047195,75.62939913814883,-23.937270350999825,1750160383.5000894
209,6.966666666666667,0.06968394632993286,9.084366019379058,1.7363869917125423,13.226255630341322,73.04524352953673,-18.850683426656868,1750160383.5334227
210,7.0,-0.2460238229652262,8.82288219172124,1.4971930022599542,14.220470199664458,67.80094147009794,-11.416805454390152,1750160383.566756
211,7.033333333333333,-0.03435408544899661,9.0471420454213,1.2982665695021196,8.341265160515718,65.43474588792009,-3.305259725950401,1750160383.6000893
212,7.066666666666666,-0.33282510960062756,8.77268432191838,0.6678329290126173,9.63810157104843,63.533772596536934,4.499721007476103,1750160383.6334226
213,7.1,0.21738853274158995,8.887836169257715,0.2615092351184526,9.015412199968788,66.26291490677325,6.171917844736453,1750160383.666756
214,7.133333333333333,1.5809082667150378,10.403594019465208,0.7389675334499419,-2.234341101650199,73.3329633343017,-4.170074009623936,1750160383.7000897
215,7.166666666666667,0.6429826484078043,11.229490613389961,1.5537883589846262,-9.034101271439985,67.95768617866952,-16.724898759535023,1750160383.7334228
216,7.2,-1.8221484729709818,11.085590584704788,2.355417961319403,-8.359807641462229,42.071575636230534,-25.261264362844102,1750160383.766756
217,7.233333333333333,-1.637057519055906,11.667710291828929,3.163439667939554,-7.720594377806529,19.325892958578017,-32.65752966432501,1750160383.8000894
218,7.266666666666667,0.9292363836231918,11.3416136687826,3.8023082203079426,2.6338927320346355,26.140988580301126,-28.104200920730694,1750160383.833423
219,7.3,2.1673357850716575,9.058168488196122,4.131340575318202,21.65758951694097,53.948632214891774,-11.562813802757892,1750160383.866756
220,7.333333333333333,1.025276021550248,7.525268793040376,3.8614881941431736,27.384133165934657,74.1785870299843,-9.007862655698283,1750160383.9000893
221,7.366666666666666,-0.6173854607859093,7.979168367734712,3.0405189785109346,13.843459995552717,75.94170232421592,-23.42540659508902,1750160383.9334226
222,7.399999999999999,-1.0325976004186128,9.165683144597018,2.3933263287266398,-3.8220638108115876,70.45266945169256,-26.966221855522495,1750160383.966756
223,7.433333333333334,-0.48315841428788514,10.192373529002461,2.2525502148298395,-9.737242131406651,69.89487878325289,-12.73926865996398,1750160384.0000894
224,7.466666666666667,-0.21257427576383198,10.434725080252798,2.245234659508544,-0.0032564520513713724,74.78553005229719,-2.6969295653957492,1750160384.0334227
225,7.5,-0.3436836286043023,9.58699236325321,2.0817957421587976,11.365706185125172,79.16763173027715,-7.538476779453769,1750160384.066756
226,7.533333333333333,-0.44017299010230077,8.662327485144235,2.001764606190073,9.74431310071959,80.07733471236882,-15.284052913614772,1750160384.1000893
227,7.566666666666666,-0.6367139262540213,8.886214924150284,2.2112587992202286,3.3383218294626156,76.33024646844036,-18.78066075556675,1750160384.1334226
228,7.6,-0.910659209562903,9.69937912587848,2.202738669212687,6.375110693545211,67.08050822874327,-23.47409834037701,1750160384.166756
229,7.633333333333333,-0.9155897643195584,9.839458466472292,1.677403396350125,12.314636341788402,57.24717339700176,-27.679782021180987,1750160384.2000897
230,7.666666666666667,-0.8880740389541063,9.644144334955598,1.3427802711740129,10.624986413277437,49.81249581803584,-27.262589990482812,1750160384.2334228
231,7.7,-1.1364900885066134,9.943689729688103,1.7517673585632059,5.616362053359501,40.47238226218251,-27.30993101252669,1750160384.266756
232,7.733333333333333,-0.8036726227094997,10.231972347026216,2.2727772877352828,4.2607220017912555,32.22021698246644,-27.49492716302928,1750160384.3000894
233,7.766666666666667,0.2662544900729028,9.771938369801694,1.8669454972911481,6.2660091685663515,29.324269018937866,-23.25069343487219,1750160384.333423
234,7.8,0.47908335975060207,9.491800668977636,1.0009533758787623,-2.0207933410372556,27.55550119580069,-13.73099862195633,1750160384.366756
235,7.833333333333333,0.09292716809670074,10.827419362665815,1.390015948032012,-27.674824673008864,34.9707658500632,5.747736031524184,1750160384.4000893
236,7.866666666666666,0.30743965309241933,11.99446602871036,2.9943459665708745,-37.707032112959034,54.90532773874013,20.198931970564978,1750160384.4334226
237,7.899999999999999,-0.11379319604584008,10.000011495117578,4.11723329216888,-14.576943844686557,61.65498356162734,4.211156436191594,1750160384.466756
238,7.933333333333334,-0.7871102685323684,7.347394982694128,4.250755570932004,-3.5902554480740423,52.106167302100104,-12.980603329263605,1750160384.5000894
239,7.966666666666667,0.3203666360293455,8.371530657878937,3.883145738688204,-21.841324017177303,53.28559538165446,2.422674687191779,1750160384.5334227
240,8.0,1.3685074802601682,10.990653974670437,3.257471771763738,-27.06794760458936,61.4882965260631,8.724237554576039,1750160384.566756
241,8.033333333333333,0.639021004973419,11.513469774437723,2.6302092312085055,-10.039184292990797,62.23716370397683,-18.302535758034054,1750160384.6000893
242,8.066666666666666,0.09630055863078194,10.780191750569685,2.130148120223854,5.959531180375621,65.98132591968567,-33.39881573831025,1750160384.6334226
243,8.1,0.2944900983721743,9.965345529329097,1.7783342401354212,17.01847876435182,74.01797202692852,-25.443275050710596,1750160384.666756
244,8.133333333333333,0.16881044519350985,9.076431695601896,1.8021865867257532,18.226449551320247,73.96664229631493,-22.62644030533884,1750160384.7000897
245,8.166666666666666,-0.22942336526993032,8.804413452599087,1.8078018844017765,7.908486608764113,64.5761936228504,-20.085336374859047,1750160384.7334228
246,8.2,-0.828323873621422,8.710286251495942,1.0589391659564955,5.390202333889958,51.20108376480326,-6.124635976407269,1750160384.766756
247,8.233333333333333,-1.091027011603884,8.499152132114274,0.3775183211448637,7.2779023202904485,39.06812716954925,2.974836089892917,1750160384.8000894
248,8.266666666666666,-0.06684338570885195,9.435984016439726,0.8701393464230492,-6.87427376569096,31.333440955649074,-6.496579093620156,1750160384.833423
249,8.3,1.245045313519431,10.701887024623995,1.5763682342036593,-18.113703826331456,30.781085999717614,-18.032572407989008,1750160384.866756
250,8.333333333333334,0.7534761583721754,10.930964194796568,1.8545072514117813,-10.133680361236493,38.153839769543566,-12.269649568964956,1750160384.9000893
251,8.366666666666667,-1.4427712088230926,11.744016614002703,2.55986639940156,-12.45056113164037,33.922778504728726,-9.59405345281402,1750160384.9334226
252,8.4,-2.4908723595963744,13.13694703776309,3.3915659456965486,-23.508072507927636,3.109503554274575,-27.026356471058005,1750160384.966756
253,8.433333333333334,-0.5686085587970341,12.189046865809036,3.8027101587498855,-3.8901359499723043,-20.595873495943955,-31.371243602181575,1750160385.0000894
254,8.466666666666667,2.160701656322686,9.160264500939077,4.126458888992106,26.21998147630184,-4.140442215916337,-10.813029918446496,1750160385.0334227
255,8.5,2.726559183475575,7.408275309357794,3.936238794742059,18.47026220499355,28.23035209946203,-2.567346998071269,1750160385.066756
256,8.533333333333333,1.259545366259385,8.140413965585228,3.236150096147646,-6.5653558855833865,43.00659517246355,-11.349261354816587,1750160385.1000893
257,8.566666666666666,-0.22455857455839354,9.55634490452876,2.820609828951877,-7.632217050858573,40.12347035109834,-8.658501397438494,1750160385.1334226
258,8.6,-0.6230306435695716,9.86285512611276,2.539771374453876,2.2250474567608607,33.35210914849104,3.299943512685664,1750160385.166756
259,8.633333333333333,-0.23166432906946952,9.34932856503852,2.3478468700499757,2.771756126431799,35.07374911176168,5.007176692247301,1750160385.2000897
260,8.666666666666666,0.3235171483230225,9.162740033891774,2.4847685745454156,5.488880550341681,45.42175059492392,-2.461920010458518,1750160385.2334228
261,8.7,0.5345431883720363,9.448725320683227,2.417340213139436,14.624405792029222,51.29191853600396,-8.540147242764084,1750160385.266756
262,8.733333333333333,-0.06169615780452878,9.450765333524387,1.7829614299233059,20.657217807173694,48.064225330906424,-10.90285952976004,1750160385.3000894
263,8.766666666666666,-1.0352599049870101,8.67698970700589,0.9907407304931073,17.358289781793392,38.399017059633586,-10.438279214647995,1750160385.333423
264,8.8,-1.3587546124259051,8.1419771407422,0.9044032273399558,-0.6554139614718921,23.37420611512473,-8.161555068535137,1750160385.366756
265,8.833333333333334,-1.315982078460598,8.99791375221356,1.6571204218386566,-17.903325512390396,11.503629860856957,-7.833513592554734,1750160385.4000893
266,8.866666666666667,-1.373484543838531,10.462802746106458,2.1987071722402356,-16.722768614488324,8.20207979533712,-3.0522603712855627,1750160385.4334226
267,8.9,-0.4049560364057081,11.836977611816696,2.6068536979701804,-19.104520117101405,12.68730955317057,18.31715714494741,1750160385.466756
268,8.933333333333334,1.216795960018206,12.90133956616189,3.7780643394146445,-31.421701482490302,28.934585605807122,35.119329950253345,1750160385.5000894
269,8.966666666666667,0.9784138658891672,11.837873086590468,4.837536474651806,-24.284180383586424,41.411382406889224,15.560318396150638,1750160385.5334227
270,9.0,-0.8681261935990713,8.752985636476552,4.760707229054569,-9.067652053872166,23.604894060406963,-10.054223740077532,1750160385.566756
271,9.033333333333331,-1.6971811144787556,7.603524803921886,4.090984574418481,-12.321874981683967,-8.348406345127984,5.8147496132128325,1750160385.6000893
272,9.066666666666666,-0.7272477040676991,9.657924798642396,3.311487692611988,-14.33344124171397,-19.100919910921995,30.10102626237983,1750160385.6334226
273,9.1,1.0343771190602877,11.204152101147278,2.5982286250739395,-2.220629616020468,-10.87988903005597,10.555154171476984,1750160385.666756
274,9.133333333333333,1.675086206993734,10.162903342208136,2.348342255937436,6.779145073126615,-4.346041059674115,-20.742174270428855,1750160385.7000897
275,9.166666666666666,0.32491908913244194,8.717285604682516,2.283309762714685,11.474131094928858,-6.435686643319741,-14.454702512222125,1750160385.7334228
276,9.2,-0.6450101203187951,8.544885599791376,1.9615490901584833,17.44304767378991,-14.29395949423182,7.9381993782583,1750160385.766756
277,9.233333333333333,0.27252143396313727,8.685426657765502,1.5676669426665761,19.621246096649713,-19.666061798162726,15.462397207159807,1750160385.8000894
278,9.266666666666666,1.368630089622656,8.377030013817137,1.0369275203439612,18.968701848009797,-16.076473509288842,19.64757718954324,1750160385.833423
279,9.3,1.7516293532483649,8.512636885429629,0.7995004461180086,8.25621865690847,-7.447155914886142,22.242862002618715,1750160385.866756
280,9.333333333333334,1.3262573120302035,9.798060379250927,1.642433898575199,-16.37253159881516,-3.5848170423236985,7.808212905531146,1750160385.9000893
281,9.366666666666667,-0.16209137895479983,11.207094440666308,2.3442171758403534,-26.226808264584974,-11.990883090117817,-11.30725513811215,1750160385.9334226
282,9.4,-0.8698853268065108,12.076033856221088,2.3028644350745284,-17.15416254969777,-29.685332292664636,-19.954992621673558,1750160385.966756
283,9.433333333333334,0.28649106709490296,12.88750003972878,3.284015728550843,-13.067198398418576,-41.61569982282228,-28.332374264755252,1750160386.0000894
284,9.466666666666669,1.5513263155438795,11.810825987841886,4.533795258438095,1.141160909104079,-33.086077163436414,-34.342885374670885,1750160386.0334227
285,9.5,2.1653741390086685,8.09678693291064,4.137115502033703,19.121310196152557,-7.207603661026708,-27.889398384857145,1750160386.066756
286,9.533333333333331,1.87840563046415,6.84182426103957,3.6093819879495483,2.1577742878253376,13.377289178505329,-22.746996250160844,1750160386.1000893
287,9.566666666666666,0.044457781529514906,9.561837102817261,3.7719543759183622,-16.16926425524307,12.68662920517648,-20.87907782434533,1750160386.1334226
288,9.6,-1.4206632804644546,10.59333922200723,3.212233457007244,-2.349158646997024,-1.0968720766955067,-4.289183678962559,1750160386.166756
289,9.633333333333333,-0.9384467163373174,9.23967434899604,2.494257747529449,3.9608792466872997,-12.005559455129877,16.655465715037195,1750160386.2000897
290,9.666666666666666,0.03618976702016541,9.23272383859051,2.5583109379804108,-0.7441561586156475,-12.344116355863243,19.954595818161266,1750160386.2334228
291,9.7,0.6894595515337004,9.698739394477531,2.6774079558074453,10.539005265631138,-4.54425501588084,11.518692195092298,1750160386.266756
292,9.733333333333333,0.9678329921856161,9.11171395454776,2.5007373364247094,21.460212162672814,2.134646949509812,3.894200499866564,1750160386.3000894
293,9.766666666666666,0.36976704145011974,8.45931830514124,1.7348035027752184,20.144807791528482,0.13615804829668376,-2.327400553805179,1750160386.333423
294,9.8,-0.44561671819949916,8.237017705610462,0.6641775359472296,11.086868883552851,-8.99064548852408,-5.106381827947816,1750160386.366756
295,9.833333333333334,-0.6979950298148889,8.712199419928195,0.9838309672521226,-5.13985115985268,-16.230282333848816,-1.602872302001021,1750160386.4000893
296,9.866666666666667,-0.19113567402070247,9.413204790272623,2.015242651209784,-15.98405137552529,-16.6675005543983,3.734154678065866,1750160386.4334226
297,9.9,1.200106633806395,10.11338968310913,1.9601251965863091,-25.444192240363268,-5.848129141119272,14.961168998655635,1750160386.466756
298,9.933333333333334,2.147053516089449,12.071604377530743,2.6117164864054048,-43.47277390190911,23.589212218127937,35.22358496111551,1750160386.5000894
299,9.966666666666669,1.2418802606488097,13.368239562875802,4.736617277900827,-41.417533567744215,49.62011331364706,33.664644640905884,1750160386.5334227
300,10.0,-0.3285449226947849,11.235773652829582,5.294599164860367,-12.21119256015569,38.909089724742906,-2.010993092648457,1750160386.566756
301,10.033333333333331,-0.6836091187552635,8.620825271383714,3.941905956865533,1.7961911130954693,12.541753850716411,-20.941289284727223,1750160386.6000893
302,10.066666666666666,-0.055324310691755696,8.651293796327538,3.180598576226991,-9.210209328339413,7.31698401431553,-1.4909655702311344,1750160386.6334226
303,10.1,0.3253718728188464,9.843833532988103,2.943873829012328,-13.904021674513547,10.371018407297338,11.017202402905388,1750160386.666756
304,10.133333333333333,0.4629849514807617,10.338230695030733,2.2010981019750036,-3.496561133114434,5.8110187688316035,-3.151885194502194,1750160386.7000897
305,10.166666666666666,0.7827590922941084,9.674421237510808,1.67441150444381,4.765817605348644,6.784973811409613,-15.13489276924607,1750160386.7334228
306,10.2,0.8629698154929465,8.687642824415516,1.6542516400546636,5.316912017792932,13.40270449704371,-9.291996386431537,1750160386.766756
307,10.233333333333333,0.545589357022737,8.816922260351927,1.7083912198122153,8.015742818785462,12.317792898907213,0.21325079643819755,1750160386.8000894
308,10.266666666666666,0.15665740171527084,9.23129387341105,1.8535753610368735,16.76152588389347,5.1668892418380254,5.924616661566214,1750160386.833423
309,10.3,-0.012789756631464833,8.429044477731878,1.3509629242274264,27.712793876370707,-0.6403733823795552,14.816200795802093,1750160386.866756
310,10.333333333333334,0.8013341745089916,7.915486464975755,0.20320128073093546,25.810493484078634,-1.019480156937401,16.015378262236432,1750160386.9000893
311,10.366666666666667,2.1017296184227523,9.374795183056607,0.48761568594941374,1.007360503438072,6.771611390473821,-0.09604418926093095,1750160386.9334226
312,10.4,1.3993512497169391,10.94349884642934,2.1044452440661545,-13.756127522599332,12.153104935027233,-10.204166805864281,1750160386.966756
313,10.433333333333334,-1.1769530895776326,10.948528304434817,2.8466933534681744,-4.649983625248045,-2.7308149143408125,-9.373105688673828,1750160387.0000894
314,10.466666666666669,-2.190479783295221,11.311010401070103,3.197297613557543,-14.80169081718038,-34.151666395174416,-23.817063250181466,1750160387.0334227
315,10.5,-0.5678431517970802,12.495731527912884,4.2768772464060065,-31.119518994831097,-55.67592667643022,-45.39662015548951,1750160387.066756
316,10.533333333333331,1.7369201173834359,11.496449412933039,4.775322589911436,-6.697025297978195,-45.6579366667797,-46.33396823070845,1750160387.1000893
317,10.566666666666666,3.141844517882882,8.845148369819547,3.9326968201553654,16.578926468395707,-8.9850343796895,-32.45483214407555,1750160387.1334226
318,10.6,2.658404988603315,8.347271725308463,2.815962865900973,1.1179091091180897,22.28544032958037,-18.093433686635272,1750160387.166756
319,10.633333333333333,0.3085665118970422,9.427354244332664,2.346409497830395,-11.9309344912222,22.82243678035738,-0.25365744380759603,1750160387.2000897
320,10.666666666666666,-1.6880885121206737,9.648547916337062,2.6057331711244642,-7.780343025239041,6.527940444055092,19.276894464849548,1750160387.2334228
321,10.7,-1.342841217638275,9.72153756992667,2.8393474185488667,-2.8385236841584667,-1.8131660591934033,25.699422362962963,1750160387.266756
322,10.733333333333333,0.32680396327394756,9.877227339249114,2.423519852816883,8.51904436089896,-1.408204197612255,14.984583233495794,1750160387.3000894
323,10.766666666666666,1.1959458113874222,9.207336812389554,1.85738496296676,20.884757908968275,3.9349079660393755,1.928221456785288,1750160387.333423
324,10.8,0.8241552124969966,8.420139166403207,1.359091422188028,22.7862841017019,13.222964179542847,-5.055099034880124,1750160387.366756
325,10.833333333333334,-0.31650860188660823,8.259395126098791,0.7547110323454911,16.818087815060373,12.463115259451397,-8.130774368378534,1750160387.4000893
326,10.866666666666667,-1.3402651795710632,8.69188316354205,0.7174099399900128,3.6354040918208463,-2.142922642190858,-6.356408998102748,1750160387.4334226
327,10.9,-0.8929508595285811,9.358894418650133,1.2253466751221487,-6.0908212050298545,-11.569581915728925,-3.4218814102105446,1750160387.466756
328,10.933333333333334,0.44067709393239474,9.881694929031939,1.5338662606776263,-12.901089728189614,-5.162941085960804,3.8134306561948557,1750160387.5000894
329,10.966666666666669,1.001874647406422,11.29061828216247,2.3675503630444887,-37.56162159151037,12.51233292975576,26.233837831163168,1750160387.5334227
330,11.0,0.8134698012138669,13.112884089545842,4.21547973859257,-50.86524856511333,27.936624686949045,42.074811892883915,1750160387.566756
331,11.033333333333331,-0.00977376179181172,12.062279200313418,5.43770039182454,-18.81592784657974,20.574284978216987,28.893856917360253,1750160387.6000893
332,11.066666666666666,-0.9429379856965125,9.325641635093545,4.92407832451303,5.453165522203857,-2.9383337685396826,14.375440495954024,1750160387.6334226
333,11.1,-0.27690371573824524,9.617953128682055,3.7532436554916817,-10.441293439619201,-11.176745232991788,14.244679566064583,1750160387.666756
334,11.133333333333333,1.3714640715239734,11.332329311950085,2.957972248727595,-13.208286702643544,-0.6411374759906252,3.7704217588509596,1750160387.7000897
335,11.166666666666666,1.864332007882774,10.478443023900871,2.463164491167017,4.768287531963838,13.1177772625524,-16.154525264249394,1750160387.7334228
336,11.2,0.9494412724269942,8.98147549716711,2.2430339312262957,6.247766650147119,26.01439746853632,-21.855098823599715,1750160387.766756
337,11.233333333333333,-0.22597655380270343,8.944916307074314,2.105502433627558,11.438435368588621,30.053999491604106,-13.945512594837787,1750160387.8000894
338,11.266666666666666,-0.31840716350391973,8.949493049924245,1.661267185868954,28.484485975679334,22.922545604233036,-6.078748893815828,1750160387.833423
339,11.3,0.10672898382655448,8.67403878817561,1.0914335989765274,23.353154482586383,19.173040311137555,-0.5891764836936548,1750160387.866756
340,11.333333333333334,-0.23416165333048816,8.41925926539088,0.5513512729024461,15.58123210330162,19.579150957842565,7.155914813005638,1750160387.9000893
341,11.366666666666667,0.28861135285653766,8.31774658349456,0.5982168027805058,18.241064156332808,16.546613459927364,9.45926769831803,1750160387.9334226
342,11.4,1.3944807539261441,9.526289019136431,1.6847164127347791,-4.481208810665109,14.347969623150654,-2.197718797342632,1750160387.966756
343,11.433333333333334,-0.1482547303204299,10.81666302585489,2.091285016770458,-19.776136926699646,10.270122256668795,-7.713600123022913,1750160388.0000894
344,11.466666666666669,-2.0895724918644456,10.463377526444015,1.3048512275488573,-3.9846073695454463,-1.6559972655423376,-2.132698979313196,1750160388.0334227
345,11.5,-0.7310068935066837,11.421483231575452,1.9757731034781234,-21.97590018082523,-15.903163458407608,-21.930687901404976,1750160388.066756
346,11.533333333333331,1.2298493960041854,14.034126627854707,3.965457310556679,-41.30217789482747,-25.338127317694852,-57.32555852411272,1750160388.1000893
347,11.566666666666666,1.5580898457395747,12.642003654687027,4.36617197520949,8.126654729734522,-17.679648708063922,-52.697892211846394,1750160388.1334226
348,11.6,1.8600931985235456,8.122122283337049,3.6828668803312494,40.006951575113135,8.517759572446828,-18.373484210394132,1750160388.166756
349,11.633333333333333,1.669660398511383,7.2451157017677685,3.8224853212998986,9.241643127965581,20.943058264254944,-1.1617987321742764,1750160388.2000897
350,11.666666666666666,-0.5058140368392061,9.109771428697682,3.984628621734167,-0.5317907941849103,0.0013495148592816975,6.2119070493781425,1750160388.2334228
351,11.7,-2.629777064189674,9.575634751106247,3.36763010869529,7.663897680324968,-29.51427470533196,18.953288079668305,1750160388.266756
352,11.733333333333333,-1.4629946482153866,9.553597229256056,2.6918202627664867,-5.520100354272887,-39.79726843539392,19.55803140341871,1750160388.3000894
353,11.766666666666666,1.917707907841174,9.501077667025672,2.257265614977651,-3.786204418602492,-24.957590063799273,8.48663373990405,1750160388.333423
354,11.8,2.916692066149114,8.97436024519349,1.9680895991423268,11.831763203438724,2.0113046841783353,4.529695800392577,1750160388.366756
355,11.833333333333334,0.7694596264228504,9.379339613706321,1.662472865885783,11.532412770934002,15.851940660674424,1.4401613438906968,1750160388.4000893
356,11.866666666666667,-0.6900525894487013,9.775152664002357,1.0439693969171164,11.730014693999259,6.893903499791272,-9.202587641794231,1750160388.4334226
357,11.9,-0.45671339137160105,8.770910454343518,0.6735881799424144,11.8351287811029,-5.407854010465629,-8.250462578421448,1750160388.466756
358,11.933333333333334,-0.6439501578286237,8.351680870095002,1.0831950769634746,-3.685720858363206,-5.724007574984832,6.345006400114707,1750160388.5000894
359,11.966666666666669,-0.6803186093587269,9.421646637675554,1.6178005852764008,-15.668197386386582,-4.49428157881932,9.74323807303129,1750160388.5334227
360,12.0,1.1470331588658664,11.087261893331169,2.0684503699644026,-21.67297996013367,1.1776657138128486,13.810688986255416,1750160388.566756
361,12.033333333333331,2.7667586176050083,12.861460838871874,3.066912190495869,-35.8000427254978,29.08140689655764,35.29820794492245,1750160388.6000893
362,12.066666666666666,0.8308348320036315,12.348516829459692,4.438829537505909,-34.1283974639133,46.35837530784485,34.08126841626902,1750160388.6334226
363,12.1,-2.7497706214814994,9.02098666135421,4.99111091118197,-12.466339309952389,15.015929060289338,3.3238951525998512,1750160388.666756
364,12.133333333333333,-2.6061914655907517,7.861666422859063,4.027588015318006,-9.51789385473639,-21.35436578377963,-1.2275640341792178,1750160388.7000897
365,12.166666666666666,0.8508652066091061,10.21309911528584,2.652680919547743,-16.091838472987217,-21.572069661643535,13.570609439252156,1750160388.7334228
366,12.2,2.373870787900996,11.146439886253983,2.2182154535676646,-2.62538108529845,-10.651498024571389,-0.8057309624586018,1750160388.766756
367,12.233333333333333,1.4126388465257982,9.700741164255845,2.2851850908668743,6.525124306815851,-1.7808528888648298,-23.409924621569633,1750160388.8000894
368,12.266666666666666,0.7945862408230058,8.95273264522215,2.048547566968476,4.016972651630425,11.35142935499967,-19.276533817995706,1750160388.833423
369,12.3,0.6150269775544845,9.03434479571239,1.8139782195094651,15.635339961657678,17.568284755090897,-5.772453170656837,1750160388.866756
370,12.333333333333334,0.2918120897519393,8.910083264667538,1.8105025270291428,27.59345745538497,15.90511074035741,-0.15044132547998568,1750160388.9000893
371,12.366666666666667,0.5955374258185906,8.52976646656702,1.2643758698514276,26.763525642968578,16.905186732399688,3.880743161203654,1750160388.9334226
372,12.4,1.7022343186569542,8.116155392575628,0.2899425511361001,22.209290347094445,23.48026823354289,4.985112366923738,1750160388.966756
373,12.433333333333334,2.057240139265414,9.041109390628217,0.7175204229733863,2.985734185203198,31.85727795531353,-3.7592169211567095,1750160389.0000894
374,12.466666666666669,0.3197697272226441,10.593149331882696,2.088056918262449,-13.517587117135095,28.328997177864206,-12.121324895938548,1750160389.0334227
375,12.5,-1.4791126713824079,10.45461274148707,1.9050076308906345,-6.377924172873279,10.705995923392848,-11.49154517422493,1750160389.066756
376,12.533333333333331,-0.9737263431524232,11.404625170562825,1.410317481544629,-15.836418675718116,-6.343412476432707,-21.36311418750777,1750160389.1000893
377,12.566666666666666,0.35355059643054915,14.297019496741832,2.8956660004452637,-30.023702005679038,-19.8941711357568,-43.56907844355268,1750160389.1334226
378,12.6,0.9205301496176828,12.477361779642393,4.444836202701463,1.0126591515907775,-22.68098181012926,-41.49401805548112,1750160389.166756
379,12.633333333333333,1.1064575040195734,7.330333256448233,4.305861409743823,20.474264002505276,-4.748586383313357,-18.305355088766404,1750160389.2000897
380,12.666666666666666,0.7074034441655901,7.690018845394029,3.641555118094189,-7.05218867279537,9.95159903126991,-12.371232894383676,1750160389.2334228
381,12.7,-0.23833821120586396,10.826560207738858,3.10927996064584,-11.52063775339274,3.3544756443588213,-12.139000222544825,1750160389.266756
382,12.733333333333333,-0.7342625063906761,10.152798258602681,2.7410510267677815,11.346414301093102,-4.5835545887325315,4.535072056988041,1750160389.3000894
383,12.766666666666666,-0.3261720358090372,8.850252034982926,2.7080974779005174,13.921774992447787,-3.6127791006614394,13.575836220634232,1750160389.333423
384,12.8,0.5318972094588301,9.45642214365318,2.52629932078506,10.971080467511968,-1.8132804001358598,4.692219475852697,1750160389.366756
385,12.833333333333334,1.0407297239314715,9.683788328120553,2.158031022097677,17.866859701563538,3.4869499722048416,-0.09479081091933961,1750160389.4000893
386,12.866666666666667,0.998745054027416,9.211136064878724,1.6406544512007766,22.4999960860398,12.370302902643036,-0.13629894215169314,1750160389.4334226
387,12.9,0.4448481513099929,8.346026940918973,0.6947700425299355,19.78882956484264,11.89186802468635,-5.986067537460143,1750160389.466756
388,12.933333333333334,-0.4676682749312362,7.817189531105706,0.7144258484128039,0.8487186621326801,3.918448594802955,-8.426900668765194,1750160389.5000894
389,12.966666666666669,-0.5740717513452334,9.111811844469623,2.162817693487307,-20.481491233067448,2.493133439371012,-6.548647110794072,1750160389.5334227
390,13.0,0.1404563954669973,10.730290695094041,2.540729246517036,-17.42811997225691,2.3777606988147455,-7.715944772595742,1750160389.566756
391,13.033333333333331,0.38435043726303336,11.528095233915844,1.7085888581102342,-16.40350821975974,2.415297217853572,2.5668074391018005,1750160389.6000893
392,13.066666666666666,0.6176978522425977,12.378443860148087,2.222333355557846,-35.43393623085832,18.799615110741698,18.77441393773692,1750160389.6334226
393,13.1,1.0758270241776897,11.190503549095904,3.782863879144421,-30.514787975501882,39.29438206639591,11.07711863910348,1750160389.666756
394,13.133333333333333,0.8010324494931824,7.970423923721814,4.28494227620237,-6.480839012427905,43.90769902679767,1.3206183722747102,1750160389.7000897
395,13.166666666666666,0.5036918758636907,8.172543731305662,3.686278818880531,-14.511153486294685,46.32135238558854,14.788378762810646,1750160389.7334228
396,13.2,0.7638638011833451,11.514607561090699,3.117228933513698,-26.82348879473544,51.19879729452652,10.908490118484776,1750160389.766756
397,13.233333333333333,0.9217065397427805,11.86576142803851,2.661390621571655,-4.0939102635322175,50.15736311514105,-19.500397502204915,1750160389.8000894
398,13.266666666666666,1.1226173383631695,9.707728022257847,2.0536630064340566,11.500647877801176,56.56423851678469,-30.151900838758266,1750160389.833423
399,13.3,1.0093525476454046,9.282094255171453,1.8636618099250453,3.4005649295387053,70.34731752317421,-20.839543424479515,1750160389.866756
400,13.333333333333334,0.11021727465563,9.538093002988827,1.9605283330755099,11.316575322628314,69.38747841072076,-17.8444298149247,1750160389.9000893
401,13.366666666666667,-0.3487765744710599,8.708146933969395,1.5986125542379455,24.721063320913892,56.36858005416249,-14.681385761432598,1750160389.9334226
402,13.4,-0.21830289731295136,8.23162693672761,1.0962929320742851,18.42750444552367,48.639446013639336,-2.088853516633945,1750160389.966756
403,13.433333333333334,-0.33286100451927086,8.499213639877775,0.5147787956592211,16.35945348959971,45.66261978281799,10.870553104738107,1750160390.0000894
404,13.466666666666669,0.15278722883223134,9.052716904717125,0.10078271104100851,14.979084978259275,38.67108623532579,5.518915551186716,1750160390.0334227
405,13.5,1.0538620083794676,9.823623801097556,0.8588262223016734,-2.2793999997227488,28.74874434907899,-15.20129025172506,1750160390.066756
406,13.533333333333331,0.5322769127218693,9.798185492904338,1.5873836330498947,-7.301968296419201,27.301334245086686,-14.261852090712054,1750160390.1000893
407,13.566666666666666,-1.2129510286339795,10.526716139267032,1.6394204157376508,-15.32222835732426,26.609038717099196,-0.9683125532724488,1750160390.1334226
408,13.6,-2.0482522037085147,13.601023168329514,3.2845114699771125,-43.059705260410276,1.0409425732992057,-29.17795822693626,1750160390.166756
409,13.633333333333333,-0.28280378512541304,13.427753068506057,5.450144223579746,-22.3574045210596,-24.659490388447125,-70.56110421789627,1750160390.2000897
410,13.666666666666666,2.783014841279117,8.340805219554879,5.032034335570982,22.778718468741065,-1.9161769926125398,-59.70806022704863,1750160390.2334228
411,13.7,3.3414244498440624,7.34704375202187,3.5512663083592293,-2.2262376448059147,38.63620727248471,-25.480655011442927,1750160390.266756
412,13.733333333333333,1.1605300209192464,11.11308862165534,3.164372198873277,-28.027897334823948,43.878504099063974,-13.502550582216406,1750160390.3000894
413,13.766666666666666,-0.5721583781976324,11.022596507875868,3.1889725196444667,10.483235761264186,30.34633267371612,-0.9010637258728553,1750160390.333423
414,13.8,-1.191747825225208,8.580198895063432,3.1865596402545173,23.97825662129552,19.74327681881654,22.068418007365675,1750160390.366756
415,13.833333333333334,-0.9147706694912805,8.96009735864081,2.8888425442228565,0.9790116836766689,6.274650686607355,28.505616828984145,1750160390.4000893
416,13.866666666666667,0.6864627042260983,9.371394231902087,2.1108096168749313,7.592175496476645,5.184791824341038,17.630850304893194,1750160390.4334226
417,13.9,1.6774397038058346,8.433677795867016,1.5376489819621368,21.135043496234708,22.02257300287957,3.0004188391925757,1750160390.466756
418,13.933333333333334,0.627671685176643,8.38932158440329,0.9836844943064006,15.90200904784123,27.837387106918158,-9.678255592988966,1750160390.5000894
419,13.966666666666669,-0.7117175052323974,8.606232093406788,0.6223345806304985,9.854164309784366,16.548471779170413,-9.853578468302734,1750160390.5334227
420,14.0,-0.9486374970201994,8.290388097985726,1.3691605413866146,0.29504553497272523,8.311521828337927,-4.482967498942161,1750160390.566756
421,14.033333333333331,-0.32457953603576584,9.089226628985125,1.7717424868355809,-14.212566711621795,7.225336055865727,-5.3712490523200245,1750160390.6000893
422,14.066666666666666,0.5661567675378999,11.403120861955749,1.4143762014572152,-25.688515473695496,14.81338599792089,5.726629585823923,1750160390.6334226
423,14.1,0.6445988397846361,12.055685412247398,2.8471697872907087,-27.892483649772466,32.5923883681242,25.304899380659098,1750160390.666756
424,14.133333333333333,-0.37454584511854083,9.516446392643157,4.8495057538291135,-18.073227307284323,42.34744510524104,21.998846622713884,1750160390.7000897
425,14.166666666666666,-0.4949625921366908,8.548918677254642,4.318445287179471,-19.68962129082982,40.78323692054861,6.846356127789134,1750160390.7334228
426,14.2,1.1224367221926297,11.237310414928602,2.978421436622234,-31.534122765466982,45.166727224082,-0.4277070148091616,1750160390.766756
427,14.233333333333333,1.8175949365868718,11.988057683487204,2.650283299910919,-15.786218582607857,51.67269233553661,-12.907002576925011,1750160390.8000894
428,14.266666666666666,0.6707869207229806,9.450614506288908,2.167114566495741,8.134635966661296,55.71725139662102,-25.565797288358894,1750160390.833423
429,14.3,-0.09784389644292227,8.346669848500078,1.6654021310061178,7.232262996205122,65.6902297072116,-20.617528004677354,1750160390.866756
430,14.333333333333334,-0.35849044862307755,8.953292935118496,1.7267286820506205,10.864063926556174,70.15259290473821,-6.722814161117881,1750160390.9000893
431,14.366666666666667,-0.9999882360911937,9.071690500299496,1.7388162300958327,23.31352414907381,55.81102272391243,2.121863834660422,1750160390.9334226
432,14.4,-1.256804140791689,9.219934403161643,1.6383432007695027,18.694411859862633,31.644048719856347,5.536675508008106,1750160390.966756
433,14.433333333333334,-0.7882089427397561,9.27054740265383,1.1523001483204973,18.67538896338294,14.291743078248693,8.694787983137,1750160391.0000894
434,14.466666666666669,0.5710343761597996,8.9204412749391,0.2089037680560377,24.6415285864804,19.47818769193214,6.891013895322811,1750160391.0334227
435,14.5,2.1108675573161113,9.615631879326331,0.22271227043963632,3.96273172816173,41.99654271896135,-7.3957008867249625,1750160391.066756
436,14.533333333333331,1.3355439173719377,10.61465218298259,1.177743115306064,-9.241248929395995,54.66662508676234,-15.76008940598201,1750160391.1000893
437,14.566666666666666,-1.2759642091012369,10.26138883040507,1.6572605612405444,4.543543689771491,48.30082315427537,-9.16756462513598,1750160391.1334226
438,14.6,-2.6014104606990114,10.594515908058295,2.359873844146629,-13.966839045212575,30.050672397362256,-21.1993473684722,1750160391.166756
439,14.633333333333333,-1.6158609399537385,11.974340364259444,4.168613432292068,-39.76193886132976,7.214151418964715,-56.33394897757341,1750160391.2000897
440,14.666666666666666,1.1658179128442507,10.882502512654131,5.344353665165086,-10.237279294896677,5.652504166091933,-70.13893240722857,1750160391.2334228
441,14.7,3.0769164539565885,8.930254673922803,4.200685576042049,7.3643162573261005,39.16919552867963,-50.58002098455344,1750160391.266756
442,14.733333333333333,1.2624190724707285,10.033855315148294,2.0291549375812306,-16.49218175276335,70.70455460053003,-23.51300248169228,1750160391.3000894
443,14.766666666666666,-1.2929316788211773,10.926154701389724,1.3629898256385116,-6.78885970660115,71.66674417050595,-1.1630875965848424,1750160391.333423
444,14.8,-1.1564332687899506,9.058952908212225,2.0893187647655194,15.309024802162403,62.86456754939965,14.461758865719707,1750160391.366756
445,14.833333333333334,-0.512356526773972,8.260518364531144,2.3205065522084154,2.0178305051854144,59.242583450125395,16.846142670629618,1750160391.4000893
446,14.866666666666667,-0.7310070104174756,9.180743322596486,2.053323345534971,0.11221242160358935,51.970112427280924,6.154485736291905,1750160391.4334226
447,14.9,-0.4042992359091024,9.13107356887904,1.8621646288108034,15.19038857796361,44.70032973367954,-6.638977338004939,1750160391.466756
448,14.933333333333334,0.35198708588643024,8.877648998093333,1.4145030220433543,9.50011780328377,45.950193666281585,-12.894892435149993,1750160391.5000894
449,14.966666666666669,0.3417317582873026,9.425313674328601,1.1155950898380347,5.714713093684539,48.11186942232915,-13.997927671894672,1750160391.5334227
450,15.0,-0.7829014907068456,9.745726749258774,1.1870760044313307,15.766629163130021,42.81679787926863,-13.897974460200858,1750160391.566756
451,15.033333333333331,-1.2279147779999244,9.760001102764294,1.1551550700990596,12.57709219685784,35.27431863457566,-16.539184422865965,1750160391.6000893
452,15.066666666666666,0.1995427857934485,9.589768522585443,1.3721418221242296,6.563115957734291,31.51714340887957,-22.731372845752492,1750160391.6334226
453,15.1,0.6389750721501198,9.254775955066359,1.7917911273547196,8.099255482019602,26.395687441455664,-19.343885343051248,1750160391.666756
454,15.133333333333333,-0.5407446432583642,9.997280275880028,1.8076128970417518,-13.734280856759248,22.84441868745758,3.0045893479574364,1750160391.7000897
455,15.166666666666666,-0.09988640109949636,11.692149941330905,2.2268242952559856,-47.69752366367578,37.13063259545879,23.66426058240135,1750160391.7334228
456,15.2,0.6701810450483574,11.819114630413983,3.549165906879128,-37.70730628375458,58.726605404740226,18.086239885330873,1750160391.766756
457,15.233333333333333,-0.647939078594173,9.372614625193284,4.449287117801726,3.2522489289121417,59.79639116949734,-1.1136511712831467,1750160391.8000894
458,15.266666666666666,-1.0921282824193266,7.141900267930384,4.183598771619905,7.907995588909986,52.171818437066364,-2.500117639563557,1750160391.833423
459,15.3,0.5631579356590426,8.317942291837117,3.2641970370922926,-21.65713559138346,60.19817681502745,11.399417220411925,1750160391.866756
460,15.333333333333334,1.274189687477038,11.186262657763194,2.2007868061934173,-28.73992650082203,70.98671412443889,7.774984582437651,1750160391.9000893
461,15.366666666666667,0.43491106082332265,11.645602848866368,1.5372014946003678,-11.729842928167207,72.24871475003563,-14.602243298221442,1750160391.9334226
462,15.4,-0.3331592916835822,10.435651850979436,1.5139127402016803,-5.621034146954882,73.49092985470152,-23.217095675685787,1750160391.966756
463,15.433333333333334,-0.697043339059443,10.3290996832435,1.6285224154717883,-2.211315386927601,72.0148877570932,-14.634949258385092,1750160392.0000894
464,15.466666666666669,-0.6449968123727043,10.251791365577644,1.4364289471366531,15.291183658220405,62.42036451382087,-10.243140834176188,1750160392.0334227
465,15.5,-0.08425257270255446,9.195417424928552,1.1553695901562406,24.273091653513347,55.71192580721574,-9.503390024784505,1750160392.066756
466,15.533333333333331,0.17386812668612572,8.75838967359877,1.0532639483095645,14.240627972015258,54.15370107996856,-3.8354467406358825,1750160392.1000893
467,15.566666666666666,-0.17217961146814192,8.900486577698778,0.7778015291655217,11.211563097926364,50.03100931955237,3.083312269593073,1750160392.1334226
468,15.6,-0.03161926113665191,8.790997629315054,0.42043326929527236,17.39223804382702,46.326868217341705,5.8173987464363925,1750160392.166756
469,15.633333333333333,0.6367529319183467,9.517009381474782,0.6947638461170303,9.601030817514964,43.67972588801028,-1.6116465992526883,1750160392.2000897
470,15.666666666666666,0.524202014295054,10.323384832915954,1.1466173304943386,1.126853423856629,38.77334757754822,-15.670582655457096,1750160392.2334228
471,15.7,-0.4150188783097082,9.607415102332729,1.3605592961499557,5.084407471307708,36.78234520760017,-24.41356575741777,1750160392.266756
472,15.733333333333333,-1.551542599059906,10.28750895428984,2.1618179993217255,-11.774992896651996,29.154741162249977,-32.50708067351768,1750160392.3000894
473,15.766666666666666,-2.2046885067094646,13.545903798716607,3.2317393710930133,-38.9310552261039,6.339669221474559,-40.642053813911986,1750160392.333423
474,15.8,-0.5580985605318038,13.758871481794158,3.7067330845724493,-16.88932861522014,0.761059709534107,-31.573455172169748,1750160392.366756
475,15.833333333333334,2.8357853045470796,9.283967728386576,3.8716802919772553,30.659698129253236,38.27061847925109,-14.542371507640288,1750160392.4000893
476,15.866666666666667,3.609211972251846,6.671576477877302,3.5590771364503246,34.082643806273026,80.14749324902938,-15.083981353861597,1750160392.4334226
477,15.9,0.4849270370103791,8.569205538907442,2.667341042853488,8.816426192880938,85.64920288178826,-22.493190997438358,1750160392.466756
478,15.933333333333334,-2.479360785966783,10.219882123547364,2.2235723683416886,1.8503586698492422,70.99089001413085,-12.722245798458633,1750160392.5000894
479,15.966666666666669,-2.5401668748589508,9.756768443184944,2.4246586080307897,6.447594572634476,62.20636189922658,5.03072111596148,1750160392.5334227
480,16.0,-0.8507367562870981,9.643811372857707,2.3202506616947898,8.415218770114548,59.63120359790208,7.449479199965371,1750160392.566756
481,16.03333333333333,0.6494224238252799,9.686088827911592,1.6943572206544695,11.99993360621641,63.208311313093915,-4.401528634918121,1750160392.6000893
482,16.066666666666666,0.7261637190384863,8.951658637059193,1.2507002950823365,14.313162999000381,71.64469117202601,-14.803509599147919,1750160392.6334226
483,16.1,-0.44496766450736824,8.687129008783991,0.8790227097874338,15.144342455355822,72.44111244279634,-18.587772743000738,1750160392.666756
484,16.133333333333333,-1.4151803992736056,8.7730753319915,0.19345277147924944,10.729275605195117,62.90248340581063,-19.03353408625838,1750160392.7000897
485,16.166666666666668,-1.6500275851129784,8.713711071998953,0.5417549557538777,-7.470791773503341,49.26692560012465,-22.155640287088683,1750160392.7334228
486,16.2,-1.308332207639882,9.567248984167946,2.006225856754648,-20.203830343758263,36.82698262091965,-26.339774681595514,1750160392.766756
487,16.233333333333334,-0.3837391134892927,11.2071109414719,2.0915777185915605,-17.776848735016678,36.92010781840858,-16.717840279191233,1750160392.8000894
488,16.266666666666666,0.050318967792068486,12.723192062732075,1.4497047571938468,-25.804551605757915,50.38118415328099,0.13952023345349085,1750160392.833423
489,16.3,-0.5222436405364669,13.542742107184434,2.8065876875158624,-34.82716122697067,57.67488499923099,-5.44977696421116,1750160392.866756
490,16.333333333333332,-0.6907275787854662,11.98313109491135,4.712749229957159,-12.78098223720051,49.136275807499956,-27.09171981612448,1750160392.9000893
491,16.366666666666667,0.09345139616185527,7.9407087133681475,4.862193813731925,11.902031037323166,39.661632816680886,-29.025967540618453,1750160392.9334226
492,16.4,1.151874222081432,5.938114640406995,4.21529921370216,-3.6090056809263773,44.661341944622194,-13.509838512312351,1750160392.966756
493,16.433333333333334,1.9375981176854342,9.029043943589647,3.5461270919949976,-28.954474336648893,56.88660537553325,-13.041158330936153,1750160393.0000894
494,16.466666666666665,1.7552008709538656,12.320062263231426,2.4069948566995674,-15.449666519112395,59.53227487612003,-28.238634892399777,1750160393.0334227
495,16.5,0.9825738419478416,10.791359178611708,1.373246609900383,11.86859828331979,56.58126819951609,-30.709029672876184,1750160393.066756
496,16.53333333333333,0.73535341629098,8.194896811508338,1.2258255157671396,6.812947678044855,60.58696791940643,-17.497231651199492,1750160393.1000893
497,16.566666666666666,0.5252302866840213,8.683422470877538,1.637144100602304,-9.782849551058735,61.8595268191403,-8.983869816830365,1750160393.1334226
498,16.6,-0.08444697190554422,9.360495369416,1.9521616726988997,-2.5530981039440284,49.508788462202666,-4.474519041873635,1750160393.166756
499,16.633333333333333,-0.23571378862941192,8.398246969941932,1.986971613352233,7.75568433122211,34.561979152607,8.203582535554078,1750160393.2000897
500,16.666666666666668,-0.13885018051751954,8.431726859736445,1.7675129024380436,-0.21180400805293909,23.673056302067824,23.011710267269567,1750160393.2334228
501,16.7,-0.12615715075134193,9.540862042305976,1.1385467101862647,1.3702942818080253,13.769889307536943,30.401657244944268,1750160393.266756
502,16.733333333333334,0.9093673699187041,9.513864006472577,0.4509547425377095,21.16258522061928,11.090928374008724,29.0814221101066,1750160393.3000894
503,16.766666666666666,2.212586722838988,9.25270960374625,0.7250750469171899,17.253181882364444,14.369176135457769,19.381703544776904,1750160393.333423
504,16.8,1.3696920064333966,10.192661669502659,1.6813123715188092,-8.10241745942427,11.382637297691964,10.590128098658553,1750160393.366756
505,16.833333333333332,-0.6793893384841614,11.030967754139265,1.87216460380688,-10.049149055211938,1.9972207197133258,8.325736238692329,1750160393.4000893
506,16.866666666666667,-1.155028848047777,11.78545758166438,1.9672809861220508,-7.753538593202926,-15.22840047146693,-5.3053899050910225,1750160393.4334226
507,16.9,-0.10296276730575776,13.1050651153359,3.6249466075675416,-18.973759457884647,-43.22013830989623,-32.981236346663444,1750160393.466756
508,16.933333333333334,1.19933923543929,11.812391511903922,5.24623582772022,-0.20862065544486086,-55.71686426114486,-41.832370436264654,1750160393.5000894
509,16.966666666666665,2.1092184190208703,7.881388680119216,4.659529488051112,21.748746137326616,-31.21839055588888,-24.14203145718608,1750160393.5334227
510,17.0,1.7828887228017938,7.299663064435707,3.4877933656273052,-5.394717015806771,0.27151598456538917,-8.847882109882017,1750160393.566756
511,17.03333333333333,0.4859683161643139,9.84703546952297,3.4085205612477187,-24.19708925050548,3.9351912318477185,-1.2678407647041405,1750160393.6000893
512,17.066666666666666,-0.2933182168691965,10.00339505541301,3.1548488877855934,-4.491417512540924,-11.062682046288307,12.341719687076166,1750160393.6334226
513,17.1,-0.19172769483552426,8.878457167187598,2.2157038533764872,1.658591629508411,-23.62739959238998,23.55061203221413,1750160393.666756
514,17.133333333333333,0.24862390440852067,9.329781447207147,1.8067563143052674,0.5928133691576178,-28.711528801355364,20.79098546820224,1750160393.7000897
515,17.166666666666668,0.8861443088503795,9.472804015987329,1.8987602257773455,14.390451353856157,-25.186602102773975,11.351164430413764,1750160393.7334228
516,17.2,1.2000808055818357,8.71757733231483,1.4063925212906736,19.168800684727536,-20.093169521561766,2.2153756090603194,1750160393.766756
517,17.233333333333334,0.2990547880581574,8.640218831503235,0.8086524828621197,14.368896930679137,-26.62009930891314,-3.0809192318328327,1750160393.8000894
518,17.266666666666666,-0.7390025335098057,9.054813002973496,1.3078853881436057,5.394899417154062,-34.09456814042363,2.8990173269637136,1750160393.833423
519,17.3,-0.11894586926884335,9.48460313551237,1.6119359749683193,-11.581037891966343,-27.66956033576676,13.044918626020202,1750160393.866756
520,17.333333333333332,0.8546918175200633,10.489133047178973,0.5722261625005283,-20.40449071248988,-22.368525752890033,14.316602817561417,1750160393.9000893
521,17.366666666666667,0.9946079186158339,12.11593440390293,0.9023016592835803,-28.848994889191673,-18.35435257270461,16.939748539392177,1750160393.9334226
522,17.4,1.463293387662478,12.845173804680664,3.7152251070576963,-43.68861497331054,2.628827906780551,25.94923964240309,1750160393.966756
523,17.433333333333334,1.0170537281906395,11.135258682871072,5.472017387474614,-29.57388061691651,14.127988846681507,23.67291957054671,1750160394.0000894
524,17.466666666666665,-0.8594133076969644,8.859347216938673,4.596556403109075,-2.001146472449917,-6.063363968523364,13.041638143465843,1750160394.0334227
525,17.5,-0.49634354153099564,9.390422016228381,3.1624831454395954,-9.937989880311727,-20.13415048912848,8.947359388608604,1750160394.066756
526,17.53333333333333,1.8808993808567236,11.184657105043852,2.3669139815080977,-18.88848033122048,-10.218378128342575,1.5204732120521463,1750160394.1000893
527,17.566666666666666,2.467280810638382,10.35374985743255,2.04354483647924,3.7866121219878313,0.8241036359320106,-13.30156298300972,1750160394.1334226
528,17.6,1.6792760690968818,8.294790694582439,2.1017952285121426,9.691796318081362,11.176893261759899,-19.74514599345814,1750160394.166756
529,17.633333333333333,1.0906209491253431,8.17482628270727,2.180363476437042,-6.884242096961087,22.07700029965867,-15.20124199846008,1750160394.2000897
530,17.666666666666668,0.6366931321532661,8.987011563915049,1.8249979178374098,-1.8480451509774654,21.47506548441068,-9.823874481615958,1750160394.2334228
531,17.7,0.8165330480886507,9.494911584310275,1.45424808184254,8.015560586001449,16.34593087155605,-8.881161621649145,1750160394.266756
532,17.733333333333334,1.0362033756798459,9.959159331794819,1.214570915397429,8.035072052672259,18.285577404694898,-8.315253588603431,1750160394.3000894
533,17.766666666666666,0.9272867927409263,9.4138685858858,0.251595819427086,25.67273596151512,25.03331025811872,-1.569703988825507,1750160394.333423
534,17.8,1.5060572356243915,8.757378438897799,-0.13994466047953996,28.561625977777425,31.672260202346646,0.7749677020048679,1750160394.366756
535,17.833333333333332,1.1474686836573254,9.997045625029745,1.4096957792141795,-4.574152678165594,27.58681412492764,-10.163799380568015,1750160394.4000893
536,17.866666666666667,-0.7531232973556031,10.74732888602096,1.727547032712205,-8.398540555452678,9.314088050173945,-15.206545688553076,1750160394.4334226
537,17.9,-0.6653087458954713,10.132215957646306,0.7502767811045645,3.4352345385830514,-7.704991582682231,-13.317881564726758,1750160394.466756
538,17.933333333333334,1.1133010143801803,11.67104356862031,3.2478590101361657,-24.714058497783245,-15.17205983532761,-30.40020972561728,1750160394.5000894
539,17.966666666666665,1.2421658198041161,12.98966559225035,6.32021480286616,-23.465241838424276,-13.372686012700509,-52.53310220452742,1750160394.5334227
540,18.0,0.9680770097925211,10.072505309454224,4.656207339781824,20.319334420295334,0.7959078757797147,-46.13365229950607,1750160394.566756
541,18.03333333333333,1.6578996969616089,7.858536932371314,2.4299699523924536,11.633246018410386,16.069492502979426,-18.904625660023555,1750160394.6000893
542,18.066666666666663,0.9918573862751398,9.461212085917678,2.8937846379803185,-15.766404768887206,14.551595459176752,8.5792476377983,1750160394.6334226
543,18.1,-1.1941271534825855,10.349840584580711,2.894560495948357,2.9303777808693887,-2.1171216531156163,28.48491129580267,1750160394.666756
544,18.133333333333333,-1.818123819987855,9.553598474751476,2.2463858051472565,15.477816616340393,-19.279530792517065,31.751981884852043,1750160394.7000897
545,18.166666666666668,-0.008136830056552191,9.226466812605075,2.373109133937443,11.29119663562966,-24.833205553566586,21.884639583111046,1750160394.7334228
546,18.2,1.6811932632384141,8.84670427581659,2.104111588823691,21.320564745492064,-16.098608260092828,14.580305219513,1750160394.766756
547,18.23333333333333,1.6633459712836272,8.401602696407306,1.2632055815723873,21.352490392565766,-3.3519549341691026,9.012457868015598,1750160394.8000894
548,18.266666666666666,0.8525431612507661,8.531254282913357,0.7071884905461432,11.519070420936792,-1.5670695605511327,-0.5079312381226213,1750160394.833423
549,18.3,0.045753262481494694,8.86794994447892,0.7098535837623778,9.392654432293208,-9.952980156033016,-2.7578621513390265,1750160394.866756
550,18.33333333333333,-0.2551232519425755,9.352631648726412,1.2320807369109128,1.046904409714179,-12.44025745322283,2.9658099426980735,1750160394.9000893
551,18.366666666666667,0.3720264255347031,9.814013393728162,1.3499470582179944,-5.381666043727567,-7.570747064815196,4.006135264941703,1750160394.9334226
552,18.4,1.156448211592806,10.688669453335958,1.4332417643561017,-12.063911259219608,0.008954880394969278,13.29320556542189,1750160394.966756
553,18.433333333333334,1.2274479601622388,12.316394350032922,3.299265051459765,-39.162746499363294,19.069272139070783,35.64873769200743,1750160395.0000894
554,18.466666666666665,0.4190891229033723,12.130022224093672,5.483920407068704,-45.08864851970794,34.0891379600979,35.84359083023402,1750160395.0334227
555,18.5,-0.44600659141634047,9.722101182585185,5.22679440878086,-15.406736904920809,20.27527639201491,12.786406431147398,1750160395.066756
556,18.53333333333333,0.03276791591161074,9.400814405942048,3.82624662451207,-11.00066664051431,1.8120563782869934,2.259147623696192,1750160395.1000893
557,18.566666666666663,1.0585677869079717,11.07577168629153,3.18125808816183,-21.058128289012114,4.794250997913644,-3.1585766459012694,1750160395.1334226
558,18.6,1.0656424938885705,10.516369027596241,2.547978373129114,-3.0297506894899353,14.966332973437217,-19.514462572912244,1750160395.166756
559,18.633333333333333,0.7336942337017539,8.846562974608714,2.0395380095177664,5.1211505964691675,23.59607907580857,-26.47250825834528,1750160395.2000897
560,18.666666666666668,0.5275909425242099,8.920145859766846,2.3030098287867045,-5.273733404903027,31.318045251720676,-17.715838544364424,1750160395.2334228
561,18.7,0.10432275547773107,9.20614540420266,2.3218203285101104,6.625572515270391,29.43074598976787,-9.211589859679087,1750160395.266756
562,18.73333333333333,-0.09163852802396186,8.490501131428266,1.811120714810877,24.28924539676909,19.786563446688152,-4.4388615905368365,1750160395.3000894
563,18.766666666666666,-0.043946946912717264,7.795609142632319,1.1312609441426273,23.198084364132605,13.19129280860513,5.480792518750586,1750160395.333423
564,18.8,0.40240812268405496,7.984936962740246,0.27156486102921445,18.107670757101452,11.70197892124097,20.161775596501982,1750160395.366756
565,18.83333333333333,1.5191566219043142,9.502994707879159,0.42894205292636783,10.243816776513132,10.39905132712644,18.470970205992106,1750160395.4000893
566,18.866666666666667,1.7030053985531612,10.772095100606833,1.5721956234528993,1.4673254878308182,6.859195566817711,-3.2746093924622066,1750160395.4334226
567,18.9,0.25305433267741057,10.478863213643399,1.9496678886069039,-2.8561054314655943,1.1006429587086082,-19.39562405772527,1750160395.466756
568,18.933333333333334,-0.8991841050016697,11.55736779152139,2.4311791860267435,-21.31703440645677,-13.682983520438285,-32.211877512512636,1750160395.5000894
569,18.966666666666665,-0.8046234561217518,14.155136208992875,3.97252246653615,-32.42726907240676,-34.0595524380703,-50.600939616604684,1750160395.5334227
570,19.0,0.38848790756107643,12.768851225535665,4.445267924657738,1.4419456551016436,-32.61723883034526,-49.30220584501586,1750160395.566756
571,19.03333333333333,2.653985085051002,8.226749044170738,3.3838201949062956,27.45079733853134,-0.37540449413489796,-32.10315335478134,1750160395.6000893
572,19.066666666666663,3.5860810535420535,7.251339831427739,2.8889294815405364,3.485053421049871,31.395170283644745,-21.61144287339129,1750160395.6334226
573,19.1,0.8195600881852325,9.316491432633859,3.3214515967560914,-11.445383345061888,33.444716198194754,-0.06399373892538618,1750160395.666756
574,19.133333333333333,-2.2951555229973053,9.942762891390739,3.3499265452750135,5.36411410912324,11.085824234654122,27.08597156431325,1750160395.7000897
575,19.166666666666668,-1.2188284696671539,9.35097640861645,2.4167050884362578,12.803414412841907,-5.688210943968068,24.223315107154477,1750160395.7334228
576,19.2,1.9726652527673725,8.819448596128861,1.5466989988749937,8.381400697820691,3.7838638119333075,6.974266019991197,1750160395.766756
577,19.23333333333333,2.730527181058161,8.448857120157335,1.4510989099390856,8.296221736510043,27.746298511868837,1.4505096247556863,1750160395.8000894
578,19.266666666666666,0.9466423539906081,8.394379259537242,0.8333230793012785,11.651459162274826,39.36435870050411,-5.382573620852106,1750160395.833423
579,19.3,-0.9252719690042657,8.355293090313678,0.06248166208144734,8.189689064956076,32.109321390523505,-13.534420551328198,1750160395.866756
580,19.33333333333333,-1.17837298223546,8.785250120972611,1.1127950312988886,-11.501030938728148,25.369185196898524,-10.331584396503084,1750160395.9000893
581,19.366666666666667,-0.23123383222221489,9.867096853424126,1.8497161901221992,-21.985463055821864,27.28311166361679,-5.927391283225569,1750160395.9334226
582,19.4,-0.15829132870522666,10.917383025380722,0.8383496815791512,-15.358184687110088,25.50080151578537,-2.631837785134358,1750160395.966756
583,19.433333333333334,-0.4353486486948546,12.230980613411559,1.9103375814709855,-31.557163828107708,26.36955186319669,10.47810976983905,1750160396.0000894
584,19.466666666666665,0.522660268676717,12.388124599191109,4.925802574151173,-47.53592714876592,39.02861204918611,20.219768862115572,1750160396.0334227
585,19.5,0.6919187908915377,9.889614493786981,5.453734670536788,-21.92976098378997,41.77585609389823,14.507228659889492,1750160396.066756
586,19.53333333333333,-0.46423789546026417,8.534403320592215,4.136803457396512,-7.357146223784917,28.446488277883688,9.999914646673274,1750160396.1000893
587,19.566666666666663,-0.052548896158094195,10.56349550892803,3.498993555560506,-23.513120320815155,21.68677298830745,8.280257494240754,1750160396.1334226
588,19.6,1.3984567090875408,11.658776197740792,2.807420713243122,-15.79427547980529,23.936640856653767,-7.245951004352401,1750160396.166756
589,19.633333333333333,1.3093414884485168,10.107667114187269,1.944230474203564,3.7292573086828273,27.46167490147299,-24.327614328911547,1750160396.2000897
590,19.666666666666668,0.18711319635172724,8.990828587042383,1.8308878567036564,1.8218381845192144,33.34955818506381,-22.680526312741474,1750160396.2334228
591,19.7,-0.4158494011307852,8.923237990528436,1.703526547141742,6.355319910141937,33.93335824772442,-11.27821196574399,1750160396.266756
592,19.73333333333333,-0.18681177986269565,8.674729346181724,1.1754659155224592,19.61993975515439,26.998890987709217,-3.614248553002131,1750160396.3000894
593,19.766666666666666,0.21786124227385328,8.251023399496496,0.9884010640669143,17.035020055392298,22.8799919639313,3.9313211590683994,1750160396.333423
594,19.8,0.3925920752568786,7.578355350294561,0.6624769168320795,13.16939639688132,24.058308249427007,14.98106694797067,1750160396.366756
595,19.83333333333333,0.9949821266563433,7.7338555076861315,0.20597259951605892,6.633905091577354,27.947002660217734,16.700540749001643,1750160396.4000893
596,19.866666666666667,1.2444963495765908,10.036744869097408,0.8082556217289953,-16.17268629143327,24.84506230503936,-2.5418837420508305,1750160396.4334226
597,19.9,-0.44637930818826893,11.727620237597591,1.5151492378011209,-17.123165779342827,1.7083933468585002,-27.15680669308972,1750160396.466756
598,19.933333333333334,-2.167225426603744,11.079655813562743,1.510335712069294,2.4298629991655663,-30.0960795092366,-37.21440305811385,1750160396.5000894
599,19.966666666666665,-1.3823976572024415,11.694238960706034,2.4528755415958807,-10.558754283747177,-49.7666008508306,-36.49784772404931,1750160396.5334227
600,20.0,0.9135899132785541,13.078850772890839,4.012010627317427,-20.910709061987383,-46.84375626196463,-36.4558831620856,1750160396.566756
601,20.03333333333333,3.1103592400855504,10.833561473740506,4.28346283052516,8.311912794325206,-8.33983711628516,-42.692956710099175,1750160396.6000893
602,20.066666666666663,3.925276454324091,8.310570986677423,3.5825233025184775,12.045037162983789,48.417270991992275,-46.213196224122505,1750160396.6334226
603,20.1,1.8078853600054439,9.610504264354162,2.5226367955040234,-12.915978311594959,71.55423652578381,-26.28646496109129,1750160396.666756
604,20.133333333333333,-1.4457649635293408,10.328842968532971,1.4551191744531549,-7.181906460722796,56.33265785907295,9.44647308408106,1750160396.7000897
605,20.166666666666668,-1.964746068658101,9.054318696358115,1.5267519056749035,3.5909184916789685,42.55083132832676,26.89585260339246,1750160396.7334228
606,20.2,0.014240593660407752,9.486786856894602,2.1759121881098396,0.10242991434372684,40.13612693426789,17.660328176587292,1750160396.766756
607,20.23333333333333,1.1443877641528144,10.036273839971598,1.9423544679801603,17.30369640877347,40.244496681413736,1.655335452914653,1750160396.8000894
608,20.266666666666666,0.4433447274209651,8.888116141898875,1.6328503462351112,35.203498430832965,43.09163714161122,-6.860075232982845,1750160396.833423
609,20.3,-0.5498353165963002,8.59978944294548,1.7514698643758457,27.83413457611861,42.79150787245971,-9.583613386801112,1750160396.866756
610,20.33333333333333,-0.9777760775445763,9.086804482160645,1.0145767517679396,20.74286216594455,34.89384494970035,-12.74933413364746,1750160396.9000893
611,20.366666666666667,-1.0256033825699626,8.986216073248421,0.31143177901434177,14.521003217006843,26.724497085517317,-13.322937802923377,1750160396.9334226
612,20.4,-0.7764372397085759,9.161411556016201,1.0731349657307656,-1.7914811636456647,23.361442206144936,-8.899211666486375,1750160396.966756
613,20.433333333333334,-0.5525944292304472,9.635137116938571,1.283860019588923,-9.243117171216902,24.07871750421051,-6.309625019276853,1750160397.0000894
614,20.466666666666665,-0.334756066431658,10.648883301810475,0.6832650575747324,-12.937569221925775,32.47166959909444,0.23844195457263306,1750160397.0334227
615,20.5,0.6256126093929513,12.505602538737644,2.0834238496062087,-25.09174618039614,54.12785639245997,15.34475408266041,1750160397.066756
616,20.53333333333333,1.522841711269637,12.47221746974172,4.264201699661259,-19.358561949641192,80.39030921407564,14.58872129267262,1750160397.1000893
617,20.566666666666663,0.7435163522229821,9.576959378660868,4.7280502688375154,2.316250126962742,91.31838661665256,-6.521971979414506,1750160397.1334226
618,20.6,-0.6677311552899341,7.650837686332664,4.526524969714895,-1.3442311044041761,81.80993729297757,-12.933417625286618,1750160397.166756
619,20.633333333333333,-0.7090189245214191,8.935904683979233,3.8306980981909513,-23.18184737245659,67.33517466251482,-1.5567552019465278,1750160397.2000897
620,20.666666666666668,0.2181937854022443,11.012163960731515,2.696354001103858,-18.78582459822619,61.28071912899196,-3.367816759613049,1750160397.2334228
621,20.7,0.838565244411008,10.971963320728495,2.934454472740081,8.109399556632766,63.1212353082246,-18.447731967835846,1750160397.266756
622,20.73333333333333,0.8944271453102735,9.34593091036161,3.3969419459704495,13.425700468320084,69.32377019991387,-26.246841951523226,1750160397.3000894
623,20.766666666666666,0.41629750971694435,8.759400559405098,2.5164213607539554,-1.5311205245437702,76.58935729377491,-23.657059471993804,1750160397.333423
624,20.8,-0.07469178495853085,9.42234528560401,2.0946109166898594,4.960109920493299,75.99136425326857,-18.389726316325117,1750160397.366756
625,20.83333333333333,-0.03759223467623364,9.572011056357278,2.355257518266571,21.999785069659616,64.97782906694366,-16.803486249042123,1750160397.4000893
626,20.866666666666667,-0.3093347435692907,8.876858510304816,1.618663448445957,17.859639298902238,54.55886408524089,-13.803048189754385,1750160397.4334226
627,20.9,-0.7381510422492402,8.068667021346617,0.5808831882846062,13.856354550473558,51.417019983586115,0.17952486964992564,1750160397.466756
628,20.933333333333334,0.10784243043625777,8.45821522511604,0.5702054080719187,11.597210209922512,49.77693702644675,8.413608505457129,1750160397.5000894
629,20.966666666666665,1.103379353913276,10.15251032227391,1.0116691633794437,-4.919371268194719,45.70113866165591,-3.3132257248279156,1750160397.5334227
630,21.0,0.5893196104658986,10.09261135609256,1.2876827305239074,-3.068180053409405,46.4607636371916,-6.196251480356335,1750160397.566756
631,21.03333333333333,-0.9219620066235339,9.144363181596104,1.910620429126934,-3.436251699236939,48.10142245130739,3.3456596639794105,1750160397.6000893
632,21.066666666666663,-2.5777097628678054,12.242017920195496,2.8107148024028863,-41.57617107032721,24.053715199493595,-19.512567014311205,1750160397.6334226
633,21.1,-2.106863745472934,14.962347539455891,3.4448248618865187,-32.463323660736734,-14.057309478523457,-61.27545851376645,1750160397.666756
634,21.133333333333333,1.6918540054317197,10.424567076796386,4.127382856487596,30.41805553916289,-6.615493689556109,-60.140636951585236,1750160397.7000897
635,21.166666666666668,4.294129637921,5.9542458580735556,4.511763372333148,22.01587112479281,43.768382590368326,-25.048948013512742,1750160397.7334228
636,21.2,2.3865360010088215,8.526278316709337,3.6792301996443735,-27.028626150809817,68.7421570682901,-7.697063487557796,1750160397.766756
637,21.23333333333333,-0.7414742377486574,11.109667620713426,2.565090562011077,-14.942910782184683,54.592272496992145,-7.961705784580674,1750160397.8000894
638,21.266666666666666,-1.7899298021606196,9.654336020070561,2.473577701528706,8.239516688460897,36.87422408529921,1.3081942094481118,1750160397.833423
639,21.3,-0.9592577424640374,8.845954894419263,2.7782665897934393,3.1533383969142372,27.539882327796374,15.784614714568267,1750160397.866756
640,21.33333333333333,0.3123432141665739,9.188530970490557,2.6323956597754408,10.855050399425862,27.08663875757593,15.051091666429652,1750160397.9000893
641,21.366666666666667,0.6109888835858303,8.606481123275532,2.372379203358372,19.604854374480542,34.92492342421555,-0.4593071411060241,1750160397.9334226
642,21.4,-0.12908810362996206,8.218103478402385,2.023211429738854,10.08513665460113,37.91553185795124,-14.235347905858,1750160397.966756
643,21.433333333333334,-0.8393726282591215,8.42741174253136,1.2290157965643902,2.2111384805967202,27.74077331794031,-17.117117430284853,1750160398.0000894
644,21.466666666666665,-1.0126635083455844,8.945136185011343,0.8464020526760463,-4.981866546837092,11.384337141970665,-13.06620834105135,1750160398.0334227
645,21.5,-0.5777213364262612,10.02363739961745,1.4235339493342754,-9.64948852224802,4.83769700760924,-11.125554677627512,1750160398.066756
646,21.53333333333333,0.2602212277353059,10.634214442608574,1.888750357186888,-2.3322780724450256,15.906899579133196,-9.144926517432355,1750160398.1000893
647,21.566666666666663,0.8992403859058197,11.104968432786613,2.037268496346315,-8.262345804251103,35.52808996987732,9.02395548595277,1750160398.1334226
648,21.6,0.9524386672192353,12.491901696429284,2.7774161136512467,-29.2539605717984,55.063692277318474,34.94531609277438,1750160398.166756
649,21.633333333333333,0.11489106722916245,12.338437413754072,4.042339947162253,-26.021267981746742,62.22189584866261,29.1449772648718,1750160398.2000897
650,21.666666666666668,-1.0579942693432605,9.509232307529139,4.892542316916353,-5.151831243948494,45.51259306061324,-2.8793010371560355,1750160398.2334228
651,21.7,-0.7890525997694574,7.612323454888992,4.58087662687679,-4.815350774664078,29.231676296052,-5.67731251070499,1750160398.266756
652,21.73333333333333,0.802838664613862,8.487575824665313,3.6126946815602943,-18.583453893940437,37.956103052330995,17.629976751405206,1750160398.3000894
653,21.766666666666666,1.5740613796907195,10.213118236474902,2.9976966192929435,-20.33195070399402,51.04877560254251,10.110099184388734,1750160398.333423
654,21.8,1.208850576414165,11.014175880579236,2.631490976843146,-10.374436225141295,53.579298963980115,-22.526082929474942,1750160398.366756
655,21.83333333333333,0.5010047093498425,10.318147597640257,2.3269377726093863,0.3807919849373882,56.639661472486395,-29.777141100628157,1750160398.4000893
656,21.866666666666667,-0.49187338644089496,9.041102961153538,2.0684643970549077,8.374828530266544,56.223091380187576,-14.106843396435561,1750160398.4334226
657,21.9,-0.8198040321679942,8.84527691032583,1.8004953875850256,11.761909718095925,47.828438415436295,-8.141350088279264,1750160398.466756
658,21.933333333333334,-0.08280355704914133,9.233545529810486,2.1141330909115044,12.520587523016061,43.01877350292507,-8.669750300913845,1750160398.5000894
659,21.966666666666665,0.14259916681899015,8.722635748321396,2.2954829826977443,14.364873341882385,42.67576925778135,0.9038981778104038,1750160398.5334227
660,22.0,-0.11703990647059118,8.414025379802112,1.2884150549662732,9.176892046524026,41.761205669727914,8.071865529208878,1750160398.566756
661,22.03333333333333,0.4828596328961013,9.558636961561914,0.6806913639906628,-1.7465134013681483,41.71139448018742,-1.7497284794130856,1750160398.6000893
662,22.066666666666663,0.805685468866019,10.523143136796357,1.4221076821388023,-0.7857635140091066,38.313849705269945,-13.318084869003687,1750160398.6334226
663,22.1,-0.6923326727207595,10.835796024660741,2.288453367400045,-2.0164124429384334,25.43762259831166,-18.069415510234403,1750160398.666756
664,22.133333333333333,-2.257355125573285,12.017857072237542,2.9549684470377655,-20.178590619685693,4.6396479472247725,-30.447011887705322,1750160398.7000897
665,22.166666666666668,-1.0400340888846875,12.203306872550947,3.503100519132275,-17.47685805858854,-9.227232146547493,-43.78326552057964,1750160398.7334228
666,22.2,1.8965105182479762,9.535884095436241,3.6305077154353245,11.412864496213796,5.888603257587671,-39.45464920906295,1750160398.766756
667,22.23333333333333,2.3308150146196684,7.950898089483249,3.5587106234663968,18.555163927966035,39.403494778752915,-28.349626862060504,1750160398.8000894
668,22.266666666666666,-0.09787775256328624,9.329931546702507,3.2863346710795325,8.790732242158803,51.776655312999196,-22.58597631873061,1750160398.833423
669,22.3,-1.3723216379955934,9.676785439234663,2.771201114207578,8.970896496649615,40.735969351403796,-9.267567513420516,1750160398.866756
670,22.33333333333333,-0.6249595539398911,8.922030720563741,2.618318746312864,3.8940210426464286,36.67907573222455,13.066975495403554,1750160398.9000893
671,22.366666666666667,-0.3098603806785038,9.903469272072352,2.82489755727875,0.9028005049230807,42.932890164271456,21.43870136242395,1750160398.9334226
672,22.4,-0.3752251316646489,10.369454673818709,2.6759959206112525,16.11391702033583,46.75725788607832,7.9315750517299906,1750160398.966756
673,22.433333333333334,0.35080053140531214,8.86874613946775,2.164748071964489,20.394309092719148,50.73292189301358,-8.573551511158323,1750160399.0000894
674,22.466666666666665,0.8978011403651016,8.294707227289113,1.7832818492919147,8.785389018880405,57.29494298380284,-16.28372212335509,1750160399.0334227
675,22.5,0.5320321700275071,8.98565668388367,1.491428509596694,7.6046109418553165,61.69830814746695,-19.68201421237599,1750160399.066756
676,22.53333333333333,-0.32181300882361774,9.15457871567808,1.0538613037793474,7.0702742691407225,59.41735158941531,-22.006227685093805,1750160399.1000893
677,22.566666666666663,-1.6534290622627312,8.993063443965546,1.0015400583856284,-1.6493800240083893,45.42484842218463,-24.229964439984105,1750160399.1334226
678,22.6,-2.527921349368141,9.27880179403845,1.7844109908129862,-4.139965941311392,27.14392183551147,-20.966807137676703,1750160399.166756
679,22.633333333333333,-1.56975706510343,10.26922178918873,2.327761693457388,-10.368791101503666,20.402038860247323,-4.031062341473839,1750160399.2000897
680,22.666666666666668,-0.00400743785810298,11.852116203440197,1.987637262253471,-31.231596865437066,24.825817449105834,17.284018777842764,1750160399.2334228
681,22.7,0.5814937561188,13.181182863786452,2.246023238909161,-42.41572522099221,37.79842220717364,29.73993980734682,1750160399.266756
682,22.73333333333333,0.6930957964776285,12.76419536885508,3.692282026582106,-24.30751529735219,57.418033838819284,26.07036262899827,1750160399.3000894
683,22.766666666666666,0.1942605040596142,9.944652641148991,4.7173110488999335,2.972791587908568,60.78842280397898,1.6358110971591335,1750160399.333423
684,22.8,-0.9968130369903081,7.10291355807499,4.509733099404494,5.415541163364452,44.01833666764465,-14.948175614840544,1750160399.366756
685,22.83333333333333,-0.8511428317784594,7.509717050852368,3.8770936060835,-15.821253282196553,37.02665655142222,1.7676151929016757,1750160399.4000893
686,22.866666666666667,0.8224187502886262,10.431092481523027,3.333842862371805,-24.803830637433727,42.44676011188488,10.656362383975845,1750160399.4334226
687,22.9,1.4699885523432095,12.094571927531197,2.704168294727182,-7.833401083515044,42.915344401126674,-15.318589307970047,1750160399.466756
688,22.933333333333334,0.40416089778231334,10.958664108415743,2.2249825978323203,9.947770692891229,41.68899676301566,-32.62101133488399,1750160399.5000894
689,22.966666666666665,-0.7868456950865426,8.971529277255005,2.0398360260890334,15.372428908869539,41.03319931048215,-21.609189065798844,1750160399.5334227
690,23.0,-0.7328838563312979,8.337814178197693,1.4535385283613955,19.930785387064397,38.77785714058427,-11.592763019464034,1750160399.566756
691,23.03333333333333,0.28544139350193243,8.930863121001572,0.7833797963833783,21.362505117104273,39.05860416894877,-10.074203951510418,1750160399.6000893
692,23.066666666666663,0.36616974663186924,8.89886229005061,0.8302288577131097,16.41962658935894,36.30961954670329,-1.7517702228553458,1750160399.6334226
693,23.1,-0.4139992364332435,8.00971342829215,0.7294581848547874,14.32253882530409,27.9034495621834,10.699187804833239,1750160399.666756
694,23.133333333333333,0.21976764828891382,8.587839644699205,0.5551390115847714,2.6994977971476435,22.970740151080015,8.180747833657259,1750160399.7000897
695,23.166666666666668,1.3935029846834939,10.527165313552583,1.4144139100495163,-16.240404134074822,20.12644626381195,-10.146093091753755,1750160399.7334228
696,23.2,0.42887494354219247,10.856089535311153,2.1809394745421713,-12.448624494465054,14.194590764326582,-19.105012521830133,1750160399.766756
697,23.23333333333333,-1.5714896737793003,10.60655110740356,2.347891933067247,-9.413688263675121,1.8270609850903337,-17.471052987524754,1750160399.8000894
698,23.266666666666666,-1.5315527607615353,12.292322148050985,3.242823552438847,-28.78688573347427,-21.609200803605265,-30.91164389527237,1750160399.833423
699,23.3,0.7467991358197845,12.6639168719197,4.131133925822101,-20.2568771133838,-31.974394259499018,-44.12836550285052,1750160399.866756
700,23.33333333333333,2.4898043246703274,9.582182016542088,3.9576033512311364,13.715584097542697,-2.8605654959313753,-28.670403500658736,1750160399.9000893
701,23.366666666666667,2.042579934803873,7.7966248766171224,3.69887108289715,13.701439177456162,33.593721295772,-12.801019181621335,1750160399.9334226
702,23.4,0.7754736753937531,9.146442282808723,3.584119984944435,-3.5201344686627065,39.6834312839914,-17.168551146599164,1750160399.966756
703,23.433333333333334,-0.2704956840538626,9.75084779493412,3.1324372925598727,-3.18415979084153,28.739578536980183,-9.589079612062084,1750160400.0000894
704,23.466666666666665,-1.1778487360299583,9.29874901168392,2.7145758746980806,-4.50194316336534,17.794556150935396,14.857780449723904,1750160400.0334227
705,23.5,-0.7749497575535624,9.839840719419712,2.336599375849765,-6.681606613177947,9.694505702373434,24.200977880353086,1750160400.066756
706,23.53333333333333,0.8699799104097306,9.858753813709463,1.920724600829995,6.14328095565384,11.094278021057718,14.937308901680662,1750160400.1000893
707,23.566666666666663,1.2870874580999991,8.923104077954488,2.0767005486395784,15.565590641279455,18.361484447783194,3.8723263113305184,1750160400.1334226
708,23.6,0.3120951722802306,9.07107847245413,2.2834111809186024,15.077916019552813,21.59811428933176,-3.944883963241259,1750160400.166756
709,23.633333333333333,-0.25378516145278474,9.292763284946046,1.2602023647896716,20.040087591004628,14.498979532326185,-9.51397616888432,1750160400.2000897
710,23.666666666666668,-0.500103684006634,8.462221404595562,0.17265402876274122,16.329515672826563,-2.0043896837748765,-11.1550699210577,1750160400.2334228
711,23.7,-0.5575830608610417,8.71303135245418,0.8086799495384287,-5.80837558739003,-6.639694862263656,-6.58543757238054,1750160400.266756
712,23.73333333333333,-0.15238772621641802,9.94698946504068,1.5937371444585249,-12.02716322069761,5.51022175484743,0.5977509433625343,1750160400.3000894
713,23.766666666666666,-0.3051006652646712,10.420752556297716,1.4086463062664332,-5.435699463994036,7.089967183246304,9.653721700115872,1750160400.333423
714,23.8,-0.06670017154517152,11.305977060182176,2.535257893148777,-28.86760775872679,5.204465902032595,25.74067285506975,1750160400.366756
715,23.83333333333333,1.5036240640279055,12.046693831312243,4.985200396119238,-47.87717759815648,22.848777376128208,36.253732165019564,1750160400.4000893
716,23.866666666666667,1.1596047816746162,10.267084087584326,5.793669613127233,-20.77471210724932,31.07971742582656,25.97892614405321,1750160400.4334226
717,23.9,-0.9887544140044645,8.775050823956706,4.727383356068929,-4.975662917929271,12.65515118227982,10.296550643787988,1750160400.466756
718,23.933333333333334,-0.5374111599945837,10.343588209207658,3.688882991147639,-20.65240128384812,0.6283120337432413,4.5843514782023265,1750160400.5000894
719,23.966666666666665,1.140665600823161,11.394031985239243,3.1434847656953884,-13.377247159000675,3.1968086460351834,0.2691223932637015,1750160400.5334227
720,24.0,0.5512118669546633,9.938063175916831,2.7362854707441833,6.463106368789546,4.012653767180946,-5.008096422369398,1750160400.566756
721,24.03333333333333,-0.3901388993821842,8.782505430958247,2.518731554649506,6.96329584232281,7.230696593064477,-2.8323756732164007,1750160400.6000893
722,24.066666666666663,0.19219298611910862,9.077706465410145,2.535682646457329,6.9080493827679685,12.680010147164175,2.271398039895246,1750160400.6334226
723,24.1,0.49089740233384516,9.462648658541244,2.311634414728469,9.77184127360369,9.203095120374034,1.52806505907175,1750160400.666756
724,24.133333333333333,-0.49646239250451984,8.518117180118226,1.3979060640918393,9.319590998873718,1.4848181126255504,3.433274773095211,1750160400.7000897
725,24.166666666666668,-0.6517095002128254,7.4722372963648995,0.7596175907927183,4.316463202618763,-3.2541653506667925,11.690816262964594,1750160400.7334228
726,24.2,0.920990046881568,9.16174264329272,1.051699867215024,-13.108494819922628,-8.518947228844208,11.159596437855726,1750160400.766756
727,24.23333333333333,1.4536703970466616,10.369403890105035,0.8370125753911788,-14.023648678810442,-9.396975254394242,11.446906811100332,1750160400.8000894
728,24.266666666666666,0.13686044034968953,8.741939129933378,1.0780402946238745,-3.534438538941685,-4.317350864384226,20.91106789247671,1750160400.833423
729,24.3,-0.8813637921450085,11.081922340662112,4.034881676916136,-27.549335993868024,-16.96955720015991,-10.092163291539745,1750160400.866756
730,24.33333333333333,-1.015291953059922,15.056366519297113,6.026603687909649,-25.935805325941836,-48.40020181374972,-83.23968153350748,1750160400.9000893
731,24.366666666666667,0.09414892170229366,10.549695640294026,3.9595525642460228,24.550944971710912,-54.88105422642556,-100.53910739239728,1750160400.9334226
732,24.4,1.8126749445242545,5.621823839122886,2.347942676532326,12.918802665253324,-27.904802391862283,-36.91485743156374,1750160400.966756
733,24.433333333333334,0.696826494198906,10.16599911223015,3.695252459767323,-25.381476129822424,-18.170086574064875,19.303387589311043,1750160401.0000894
734,24.466666666666665,-3.1661220459111785,13.797414992116018,4.674567287859649,15.899120962402634,-54.77955961772139,31.021823584714383,1750160401.0334227
735,24.5,-4.902311234702401,10.72237568353628,3.684264716232719,43.83239925493345,-108.09576614814652,34.36576322296749,1750160401.066756
736,24.53333333333333,-2.058476123113202,9.008043631468336,1.893585036389965,0.8400501412541921,-131.31183931781175,35.004105635778664,1750160401.1000893
737,24.566666666666663,2.59269521788563,9.443722486710058,0.6393619929451109,-10.197364529220756,-110.48101106467568,19.30225913052652,1750160401.1334226
738,24.6,4.348504607812884,8.513054779002069,0.7619679429875624,17.202789452486314,-75.17878058938038,5.399796843894238,1750160401.166756
739,24.633333333333333,2.286589126823395,8.460253580160831,1.3886490975282395,16.3470628345005,-61.105700065136695,2.4025819011731255,1750160401.2000897
740,24.666666666666668,-0.04462198808152773,9.500388783449454,1.6747079004261696,2.228057754614974,-70.55846489745348,-3.473746117430911,1750160401.2334228
741,24.7,-0.31293650240081805,9.882450175166401,2.5208033449360374,-5.919035436785335,-77.46731390315577,-1.3633802996136302,1750160401.266756
742,24.73333333333333,0.9917257277013579,11.06163884600247,3.6001056371763163,-10.43745300453647,-68.45289263003473,19.491780914796735,1750160401.3000894
743,24.766666666666666,1.9647077950403096,12.048564229201185,3.355122537875444,7.206224606092384,-62.570751075487536,31.489348418085825,1750160401.333423
744,24.8,0.7432038738636348,9.895535611710226,2.338532884737245,27.612547335032257,-76.08325628202046,20.343839534959887,1750160401.366756
745,24.83333333333333,-0.8627609567657838,7.473736955354729,2.1119788238512998,11.604260860720604,-93.00699279105535,14.526819431647372,1750160401.4000893
746,24.866666666666667,0.19751848214693724,8.730434713224694,2.678165900847068,-11.78973912599571,-93.55260762091983,28.04687948122603,1750160401.4334226
747,24.9,2.4556944280805446,10.752930130625657,3.096448000906365,-2.0559905816107586,-80.6344978498352,33.59712048052955,1750160401.466756
748,24.933333333333334,2.859770162546881,9.897233098019544,3.1217778121544817,13.579763941338086,-64.06710560237096,17.426592306106176,1750160401.5000894
749,24.966666666666665,1.7175080007409451,8.382753803114394,3.1592652777604573,6.389374378458962,-50.904546741847,3.169140143915372,1750160401.5334227
750,25.0,1.1599384684927418,8.82627216225031,3.1258454866425938,-3.593613920535084,-44.93240779770712,2.037638041811624,1750160401.566756
751,25.03333333333333,1.6754939429393845,9.887454051955071,2.875316798305941,-2.5830455661233183,-39.384240912742484,1.1277247512628361,1750160401.6000893
752,25.066666666666663,1.9593219315125088,9.927937113212018,2.780546700007354,-0.38243937000884165,-32.726822377215136,-0.27058519983137896,1750160401.6334226
753,25.1,1.4845907626887818,9.258050264031969,2.8313368286588987,-0.05133674988517306,-34.42864808412129,3.985617921599544,1750160401.666756
754,25.133333333333333,1.0520609460369625,8.797727974624134,2.76534428267423,-1.6054673253071816,-40.82617359541082,8.976956936254538,1750160401.7000897
755,25.166666666666668,1.014909293579444,9.10472795531102,2.666637419861418,-5.272501592542585,-43.744065689232315,12.582091740772261,1750160401.7334228
756,25.2,1.167643346950508,9.704681473751593,2.564944825966477,-5.570561294555931,-46.677531401853685,17.40150350814619,1750160401.766756
757,25.23333333333333,1.4208400213794454,9.68408369964791,2.512872723488342,-5.18128555758309,-46.95197489140905,19.13711623605232,1750160401.8000894
758,25.266666666666666,1.4061578870080482,9.40319815856252,2.6090245925608198,-9.480092343460429,-40.37908825496717,15.566116356979673,1750160401.833423
759,25.3,0.8627531082354328,9.708753914470806,2.6389178884188356,-10.41833269304007,-36.390658595157014,13.036370986646256,1750160401.866756
760,25.33333333333333,0.5853700127001149,10.134478135710737,2.557225254579286,-4.597463480276634,-38.072311145725344,13.01874610865926,1750160401.9000893
761,25.366666666666667,1.2600441274207557,9.996822024023372,2.5923348850111747,0.4546378975871185,-37.90291105575829,11.215613034477045,1750160401.9334226
