frame,sync_timestamp,accel_x,accel_y,accel_z,gyro_x,gyro_y,gyro_z,unix_timestamp
0,0.0,0.364,10.127,1.839,8.08397,85.80153,7.58779,1750160376.566756
1,0.03333333333333333,-0.101,9.158,2.579,51.45802,82.0916,-11.98473,1750160376.6000893
2,0.06666666666666667,-0.757,8.143,2.298,43.44275,68.89313,-17.79389,1750160376.6334226
3,0.1,-2.318,7.839,1.104,16.32824,42.77099,-13.60305,1750160376.666756
4,0.13333333333333333,-1.93,9.357,1.504,0.82443,21.29771,-20.09924,1750160376.7000895
5,0.16666666666666666,-0.333,9.436,0.687,-5.20611,18.55725,-15.65649,1750160376.7334228
6,0.2,-0.632,10.685,1.12,-1.58015,18.69466,-19.80916,1750160376.766756
7,0.23333333333333334,1.12,10.697,1.35,-2.1374,29.30534,-18.18321,1750160376.8000894
8,0.26666666666666666,0.781,10.185,0.871,-21.40458,50.36641,-4.91603,1750160376.8334227
9,0.3,0.807,11.899,4.695,-52.39695,69.22901,6.9542,1750160376.866756
10,0.3333333333333333,1.243,11.514,4.87,-42.83969,81.82443,9.48855,1750160376.9000893
11,0.36666666666666664,-2.38,7.951,5.236,1.71756,56.98473,-10.53435,1750160376.9334226
12,0.4,-2.083,7.891,4.571,-14.51908,42.28244,-2.83969,1750160376.966756
13,0.43333333333333335,2.569,11.897,4.226,-30.48092,72.28244,1.25954,1750160377.0000894
14,0.4666666666666667,3.168,11.401,2.926,-3.71756,67.0,-32.46565,1750160377.0334227
15,0.5,0.347,9.021,1.963,1.41985,76.53435,-40.21374,1750160377.066756
16,0.5333333333333333,0.278,9.206,1.736,-3.49618,85.14504,-36.1145,1750160377.1000893
17,0.5666666666666667,0.333,9.641,1.549,3.57252,84.37405,-30.12977,1750160377.1334226
18,0.6,0.235,8.854,1.75,16.59542,71.83206,-29.0916,1750160377.166756
19,0.6333333333333333,1.434,8.686,0.97,-15.98473,78.80916,-19.26718,1750160377.2000895
20,0.6666666666666666,-1.465,8.792,1.135,-9.45038,71.16794,-0.24427,1750160377.2334228
21,0.7,-1.812,8.301,0.73,8.70229,42.67939,3.58015,1750160377.266756
22,0.7333333333333333,0.824,8.44,0.9,14.34351,38.25191,15.79389,1750160377.3000894
23,0.7666666666666666,1.951,9.524,0.828,21.8855,48.9771,23.60305,1750160377.3334227
24,0.8,1.621,11.241,0.225,11.43511,74.36641,16.47328,1750160377.366756
25,0.8333333333333334,-0.002,11.77,1.384,-6.29771,74.64122,-12.80916,1750160377.4000893
26,0.8666666666666667,-1.123,11.87,2.619,-11.81679,38.9771,-34.80153,1750160377.4334226
27,0.9,-2.844,11.648,4.096,-39.54962,-2.73282,-36.67176,1750160377.466756
28,0.9333333333333333,-1.41,10.783,4.578,-6.03053,-28.94656,-19.01527,1750160377.5000894
29,0.9666666666666667,1.674,9.074,5.514,10.34351,-12.09924,-21.83969,1750160377.5334227
30,1.0,4.132,7.286,3.505,-2.49618,37.63359,-49.58015,1750160377.566756
31,1.0333333333333332,6.036,8.77,2.528,-40.65649,53.77099,-58.09924,1750160377.6000893
32,1.0666666666666667,0.034,13.465,1.949,-19.9542,48.0,-2.51908,1750160377.6334226
33,1.1,-0.412,9.256,3.242,13.0458,49.52672,43.12214,1750160377.666756
34,1.1333333333333333,-1.927,8.655,2.049,14.72519,38.25954,35.34351,1750160377.7000895
35,1.1666666666666667,-0.639,8.564,2.332,14.53435,19.35878,13.70229,1750160377.7334228
36,1.2,0.555,8.526,1.36,11.82443,9.82443,7.62595,1750160377.766756
37,1.2333333333333334,0.182,8.282,0.711,12.31298,5.19084,1.32824,1750160377.8000894
38,1.2666666666666666,-0.369,8.131,0.39,2.51145,-3.06107,-5.94656,1750160377.8334227
39,1.3,-0.45,9.934,0.874,-14.1374,-16.32824,-2.9313,1750160377.866756
40,1.3333333333333333,0.065,10.898,2.863,-11.1374,5.52672,12.80916,1750160377.9000893
41,1.3666666666666667,0.761,10.032,0.874,-10.81679,13.22137,26.80916,1750160377.9334226
42,1.4,-0.819,11.574,3.163,-35.10687,9.61069,34.0229,1750160377.966756
43,1.4333333333333333,0.699,13.666,4.001,-51.18321,2.52672,29.70992,1750160378.0000894
44,1.4666666666666666,0.328,11.507,4.659,-14.94656,-2.0916,16.33588,1750160378.0334227
45,1.5,-0.467,8.533,4.93,5.32061,-28.36641,9.92366,1750160378.066756
46,1.5333333333333332,-0.869,7.798,3.687,0.36641,-38.16031,14.52672,1750160378.1000893
47,1.5666666666666667,1.31,10.618,2.928,-15.41985,-33.9542,6.08397,1750160378.1334226
48,1.6,0.409,9.39,2.028,16.58015,-24.75573,-12.8626,1750160378.166756
49,1.6333333333333333,0.651,8.492,1.769,13.94656,-19.9542,-2.73282,1750160378.2000895
50,1.6666666666666667,0.484,8.72,1.949,17.74046,-17.94656,0.33588,1750160378.2334228
51,1.7,0.639,8.617,1.908,24.19084,-19.72519,0.61832,1750160378.266756
52,1.7333333333333334,1.329,8.143,1.12,20.81679,-16.41221,14.22901,1750160378.3000894
53,1.7666666666666666,1.482,8.454,0.802,18.45038,-4.82443,20.43511,1750160378.3334227
54,1.8,1.654,8.928,0.163,14.25191,5.77099,15.35115,1750160378.366756
55,1.8333333333333333,2.909,9.627,0.776,1.12977,16.77099,5.25954,1750160378.4000893
56,1.8666666666666667,1.214,11.114,2.868,-19.94656,7.69466,-11.53435,1750160378.4334226
57,1.9,-1.025,11.411,1.348,-13.18321,-19.64122,-22.79389,1750160378.466756
58,1.9333333333333333,0.314,11.413,1.326,1.57252,-36.35878,-24.62595,1750160378.5000894
59,1.9666666666666666,0.553,12.093,3.373,-27.57252,-33.91603,-34.80153,1750160378.5334227
60,2.0,0.898,12.728,5.679,-19.9313,-43.21374,-55.42748,1750160378.566756
61,2.033333333333333,2.059,8.279,4.082,37.72519,-17.9084,-38.01527,1750160378.6000893
62,2.0666666666666664,3.268,5.669,3.56,3.41221,19.28244,-20.8855,1750160378.6334226
63,2.1,2.983,9.692,1.326,-34.10687,28.76336,-8.99237,1750160378.666756
64,2.1333333333333333,-1.211,10.898,2.698,4.40458,8.52672,7.76336,1750160378.7000895
65,2.1666666666666665,-1.829,9.108,2.749,4.10687,-0.91603,25.29008,1750160378.7334228
66,2.2,0.089,9.474,2.883,0.93893,-17.76336,15.03817,1750160378.766756
67,2.2333333333333334,1.714,9.409,2.176,11.0229,-2.8855,14.46565,1750160378.8000894
68,2.2666666666666666,1.935,9.021,1.602,21.01527,10.12977,8.44275,1750160378.8334227
69,2.3,0.998,8.444,1.12,19.64885,17.49618,1.16794,1750160378.866756
70,2.3333333333333335,-0.223,8.921,0.898,11.03817,6.57252,-2.79389,1750160378.9000893
71,2.3666666666666667,-1.257,9.347,0.845,8.58779,-11.77863,0.25954,1750160378.9334226
72,2.4,-1.089,9.369,1.968,-8.83969,-12.48855,11.25191,1750160378.966756
73,2.433333333333333,2.073,9.807,-0.067,-29.37405,2.80916,15.26718,1750160379.0000894
74,2.466666666666667,0.488,11.483,1.41,-24.81679,3.9084,22.76336,1750160379.0334227
75,2.5,1.156,12.749,5.926,-64.77863,31.61832,41.58779,1750160379.066756
76,2.533333333333333,1.305,10.195,6.067,-27.0458,32.27481,32.1145,1750160379.1000893
77,2.5666666666666664,-1.508,8.55,5.564,-14.9313,-4.16031,18.57252,1750160379.1334226
78,2.6,-1.147,10.12,3.373,-32.87786,-15.26718,20.24427,1750160379.166756
79,2.6333333333333333,1.853,12.036,2.112,1.07634,-2.80916,-19.46565,1750160379.2000895
80,2.6666666666666665,2.124,9.512,1.765,15.94656,12.99237,-24.16794,1750160379.2334228
81,2.7,1.439,8.068,1.52,7.58779,32.84733,-22.66412,1750160379.266756
82,2.7333333333333334,0.002,8.727,2.167,6.9313,34.78626,-13.58015,1750160379.3000894
83,2.7666666666666666,-0.268,8.533,1.185,31.70229,20.8855,0.52672,1750160379.3334227
84,2.8,0.582,8.265,0.68,22.0916,19.16031,10.36641,1750160379.366756
85,2.8333333333333335,0.934,8.155,0.172,18.64122,21.0458,8.84733,1750160379.4000893
86,2.8666666666666667,2.574,9.608,1.652,-6.92366,26.76336,-9.35115,1750160379.4334226
87,2.9,-0.122,11.626,2.523,-26.89313,15.30534,-19.8855,1750160379.466756
88,2.933333333333333,-2.15,11.533,0.958,2.09924,-10.03053,-13.03817,1750160379.5000894
89,2.966666666666667,-0.74,11.926,3.673,-31.58779,-39.44275,-45.66412,1750160379.5334227
90,3.0,1.14,11.571,4.726,-21.38931,-35.46565,-70.91603,1750160379.566756
91,3.033333333333333,2.897,7.934,4.013,21.98473,-2.19847,-52.83969,1750160379.6000893
92,3.0666666666666664,3.68,7.949,2.82,-8.53435,23.23664,-30.51145,1750160379.6334226
93,3.1,0.991,10.862,2.279,-12.96183,21.50382,14.12214,1750160379.666756
94,3.1333333333333333,-2.045,9.146,2.574,17.83969,-3.03817,32.27481,1750160379.7000895
95,3.1666666666666665,-1.607,9.608,3.338,6.10687,-20.03053,28.39695,1750160379.7334228
96,3.2,-0.124,9.151,2.658,11.45038,-30.54198,23.05344,1750160379.766756
97,3.2333333333333334,1.307,8.519,1.575,17.9542,-19.61069,16.47328,1750160379.8000894
98,3.2666666666666666,1.556,8.408,0.871,6.03053,-3.77099,-0.45038,1750160379.8334227
99,3.3,1.353,9.27,0.637,14.78626,6.31298,-10.99237,1750160379.866756
100,3.3333333333333335,0.888,9.615,0.785,12.55725,6.71756,-15.56489,1750160379.9000893
101,3.3666666666666667,-0.043,10.242,1.276,9.73282,12.0458,-2.80153,1750160379.9334226
102,3.4,1.925,10.063,0.931,2.67939,17.25191,-1.61832,1750160379.966756
103,3.433333333333333,-0.915,10.989,1.846,-2.00763,-1.33588,6.96183,1750160380.0000894
104,3.466666666666667,-1.374,12.476,3.488,-61.07634,0.58779,48.53435,1750160380.0334227
105,3.5,1.283,11.301,7.609,-52.22137,20.19084,50.53435,1750160380.066756
106,3.533333333333333,-0.053,8.298,4.812,16.77863,-5.63359,11.50382,1750160380.1000893
107,3.5666666666666664,0.778,8.332,3.263,-20.14504,5.00763,7.06107,1750160380.1334226
108,3.6,1.334,12.285,2.667,-35.96183,25.82443,-7.33588,1750160380.166756
109,3.6333333333333333,1.348,10.424,2.334,-0.43511,28.99237,-26.21374,1750160380.2000895
110,3.6666666666666665,0.802,8.751,1.693,5.93893,39.81679,-24.59542,1750160380.2334228
111,3.6999999999999997,0.668,9.323,1.817,0.46565,53.22137,-20.0687,1750160380.266756
112,3.7333333333333334,-0.33,9.455,1.721,21.77099,49.10687,-13.38931,1750160380.3000894
113,3.7666666666666666,0.048,8.523,1.3,29.70229,38.32061,-7.98473,1750160380.3334227
114,3.8,0.022,8.124,0.678,15.51145,33.9542,1.53435,1750160380.366756
115,3.8333333333333335,-0.527,8.461,0.505,16.10687,34.49618,10.54962,1750160380.4000893
116,3.8666666666666667,0.804,9.354,0.692,17.25954,27.9542,2.19084,1750160380.4334226
117,3.9,1.324,10.657,1.705,-1.57252,21.43511,-17.70992,1750160380.466756
118,3.933333333333333,-0.857,10.704,1.585,-9.12977,6.54962,-21.67939,1750160380.5000894
119,3.966666666666667,-0.395,10.403,0.625,0.29008,10.03053,1.14504,1750160380.5334227
120,4.0,-0.362,11.83,2.5,-32.32061,5.22137,-16.50382,1750160380.566756
121,4.033333333333333,0.062,13.06,5.933,-42.1374,-11.79389,-59.64885,1750160380.6000893
122,4.066666666666666,1.477,10.393,4.788,33.0687,2.9771,-56.57252,1750160380.6334226
123,4.1,3.215,7.3,3.34,14.41221,39.0,-37.47328,1750160380.666756
124,4.133333333333333,2.99,9.929,2.691,-34.48092,58.63359,-7.58779,1750160380.7000895
125,4.166666666666667,-0.352,10.736,2.626,15.48092,45.61069,9.85496,1750160380.7334228
126,4.2,-1.58,8.705,2.076,9.06107,29.29008,25.46565,1750160380.766756
127,4.233333333333333,-2.002,9.316,2.488,0.46565,11.16794,21.38168,1750160380.8000894
128,4.266666666666667,0.965,8.959,2.112,16.79389,15.1374,7.78626,1750160380.8334227
129,4.3,1.618,8.835,1.463,14.0229,24.93893,-0.12214,1750160380.866756
130,4.333333333333333,0.735,8.945,1.283,15.56489,28.69466,-9.9542,1750160380.9000893
131,4.366666666666666,-0.479,9.098,0.876,11.75573,21.55725,-10.0687,1750160380.9334226
132,4.4,-0.919,8.926,0.536,8.48092,1.65649,-8.54962,1750160380.966756
133,4.433333333333334,-1.678,9.254,1.81,2.49618,-7.58779,5.70229,1750160381.0000894
134,4.466666666666667,-0.517,9.89,0.929,-17.44275,-6.9313,14.1374,1750160381.0334227
135,4.5,0.761,12.067,1.587,-22.78626,-8.43511,23.56489,1750160381.066756
136,4.533333333333333,2.66,14.626,5.411,-43.25191,34.17557,36.15267,1750160381.1000893
137,4.566666666666666,3.472,11.535,4.781,-12.70229,60.47328,18.8855,1750160381.1334226
138,4.6,-0.886,7.946,4.839,-1.17557,39.9313,-5.81679,1750160381.166756
139,4.633333333333333,-2.145,7.556,3.948,-17.32824,15.41985,2.76336,1750160381.2000895
140,4.666666666666667,0.704,10.807,3.816,-20.52672,3.41985,6.42748,1750160381.2334228
141,4.7,1.788,10.932,2.684,-6.23664,9.35878,-4.67176,1750160381.266756
142,4.733333333333333,0.407,9.112,2.028,15.03053,14.35878,-14.71756,1750160381.3000894
143,4.766666666666667,0.165,7.98,1.549,2.83969,22.12214,-12.84733,1750160381.3334227
144,4.8,0.613,8.844,1.753,-0.96947,27.29771,-5.0458,1750160381.366756
145,4.833333333333333,0.108,9.258,1.736,15.0687,20.81679,0.55725,1750160381.4000893
146,4.866666666666666,0.069,9.067,1.097,17.74046,19.89313,8.66412,1750160381.4334226
147,4.9,0.613,8.887,1.109,22.9313,21.38168,14.18321,1750160381.466756
148,4.933333333333334,0.848,8.55,0.51,18.56489,22.30534,11.81679,1750160381.5000894
149,4.966666666666667,1.822,9.785,1.772,-1.18321,16.14504,0.70229,1750160381.5334227
150,5.0,-0.469,10.317,2.634,-11.26718,1.0,-8.70229,1750160381.566756
151,5.033333333333333,-2.234,10.491,3.146,-8.9542,-18.21374,-7.17557,1750160381.6000893
152,5.066666666666666,-2.172,13.771,3.759,-41.41221,-61.49618,-39.51908,1750160381.6334226
153,5.1,1.29,11.969,2.717,-3.51145,-74.96183,-38.07634,1750160381.666756
154,5.133333333333333,3.352,8.677,3.558,13.64122,-37.36641,-14.67939,1750160381.7000895
155,5.166666666666667,2.77,6.309,3.069,17.44275,-11.54198,-3.23664,1750160381.7334228
156,5.2,-0.371,8.1,3.007,-6.8626,-5.35878,-10.79389,1750160381.766756
157,5.233333333333333,-0.785,11.693,3.361,-13.96183,-30.36641,-15.37405,1750160381.8000894
158,5.266666666666667,-0.96,9.711,2.749,12.18321,-38.74809,25.74809,1750160381.8334227
159,5.3,0.848,9.457,2.567,-0.42748,-34.52672,29.16031,1750160381.866756
160,5.333333333333333,1.353,9.378,2.294,7.81679,-18.15267,20.42748,1750160381.9000893
161,5.366666666666666,2.045,9.306,1.7,18.69466,-8.49618,6.08397,1750160381.9334226
162,5.4,0.862,8.904,1.178,21.80916,-4.41985,0.03053,1750160381.966756
163,5.433333333333334,-0.23,8.633,0.67,19.22901,-7.81679,-1.71756,1750160382.0000894
164,5.466666666666667,0.342,8.344,0.302,4.57252,-7.75573,-4.25191,1750160382.0334227
165,5.5,-0.752,9.045,1.69,-12.74046,-5.34351,3.80916,1750160382.066756
166,5.533333333333333,0.311,10.523,1.575,-20.60305,1.75573,2.12214,1750160382.1000893
167,5.566666666666666,1.19,11.176,1.381,-30.71756,1.61069,7.90076,1750160382.1334226
168,5.6,1.386,13.925,4.025,-64.35878,38.12977,38.77863,1750160382.166756
169,5.633333333333333,0.294,11.897,4.743,-22.22137,39.35878,21.01527,1750160382.2000895
170,5.666666666666667,-2.588,8.538,5.181,0.01527,0.12214,-6.54962,1750160382.2334228
171,5.7,0.182,8.377,3.548,-8.98473,-3.25954,9.31298,1750160382.266756
172,5.733333333333333,2.181,11.116,2.82,-18.33588,14.57252,9.80916,1750160382.3000894
173,5.766666666666667,1.681,10.458,2.418,3.76336,16.64885,-16.68702,1750160382.3334227
174,5.8,0.692,9.328,1.927,1.27481,24.46565,-24.58015,1750160382.366756
175,5.833333333333333,0.017,8.882,1.858,-2.87786,28.0458,-13.83969,1750160382.4000893
176,5.866666666666666,-0.227,8.971,1.839,18.80153,19.41221,0.03053,1750160382.4334226
177,5.9,0.151,8.408,1.401,32.61832,15.52672,12.27481,1750160382.466756
178,5.933333333333334,0.96,8.459,0.96,21.83969,22.31298,15.51908,1750160382.5000894
179,5.966666666666667,1.152,8.696,0.685,14.57252,25.51145,13.40458,1750160382.5334227
180,6.0,1.853,9.1,0.199,5.61069,35.08397,0.70229,1750160382.566756
181,6.033333333333333,1.662,11.035,1.87,-16.50382,38.8626,-17.84733,1750160382.6000893
182,6.066666666666666,-1.504,10.645,2.418,-7.87786,14.96183,-32.54962,1750160382.6334226
183,6.1,-1.99,11.93,3.168,-11.16031,-2.74046,-43.36641,1750160382.666756
184,6.133333333333333,-0.804,14.042,3.639,-30.70229,-23.49618,-52.84733,1750160382.7000895
185,6.166666666666667,1.626,11.284,3.8,13.77099,-7.66412,-31.94656,1750160382.7334228
186,6.2,3.287,7.377,3.807,21.22137,39.07634,-18.41985,1750160382.766756
187,6.233333333333333,0.996,7.757,3.213,10.0229,60.87786,-18.62595,1750160382.8000894
188,6.266666666666667,-0.702,9.871,3.16,-3.15267,51.60305,-20.54962,1750160382.8334227
189,6.3,-1.726,9.242,2.354,4.73282,42.63359,0.55725,1750160382.866756
190,6.333333333333333,-0.369,9.608,2.485,-9.43511,35.94656,4.63359,1750160382.9000893
191,6.366666666666666,0.11,9.776,2.605,5.07634,40.23664,-0.03817,1750160382.9334226
192,6.4,0.515,9.187,2.423,10.48092,46.12977,-8.9542,1750160382.966756
193,6.433333333333334,0.424,8.78,2.095,8.93893,48.94656,-12.79389,1750160383.0000894
194,6.466666666666667,-0.39,8.969,1.717,4.41985,41.40458,-11.99237,1750160383.0334227
195,6.5,-0.982,9.378,1.448,4.33588,29.22137,-16.61069,1750160383.066756
196,6.533333333333333,-1.109,9.467,1.271,11.28244,17.0229,-17.68702,1750160383.1000893
197,6.566666666666666,0.072,9.663,1.944,4.16031,18.14504,-11.41221,1750160383.1334226
198,6.6,1.092,9.527,2.667,1.73282,20.60305,-6.68702,1750160383.166756
199,6.633333333333333,1.456,9.754,1.745,3.15267,22.60305,-10.03817,1750160383.2000895
200,6.666666666666667,-0.855,10.908,1.573,-23.74809,18.29008,9.32061,1750160383.2334228
201,6.7,-0.881,11.928,3.922,-54.34351,22.87786,27.15267,1750160383.266756
202,6.733333333333333,0.97,10.271,4.597,-23.67939,41.14504,24.41985,1750160383.3000894
203,6.766666666666667,-0.057,8.064,3.749,-0.38168,37.40458,2.20611,1750160383.3334227
204,6.8,0.481,8.966,3.153,-27.36641,55.07634,10.64122,1750160383.366756
205,6.833333333333333,1.437,11.633,2.885,-29.58779,55.70229,4.18321,1750160383.4000893
206,6.866666666666666,0.488,11.243,2.543,-1.38168,57.76336,-13.91603,1750160383.4334226
207,6.8999999999999995,0.56,10.013,1.942,3.72519,67.91603,-23.43511,1750160383.466756
208,6.933333333333334,0.831,9.55,2.076,8.93893,76.18321,-24.1145,1750160383.5000894
209,6.966666666666667,-0.081,9.055,1.748,12.96183,71.51145,-19.38931,1750160383.5334227
210,7.0,-0.239,8.83,1.389,13.18321,69.54198,-11.14504,1750160383.566756
211,7.033333333333333,0.077,8.997,1.444,9.98473,64.1145,-2.64885,1750160383.6000893
212,7.066666666666666,-0.455,8.849,0.543,8.25191,64.14504,3.32824,1750160383.6334226
213,7.1,0.321,8.952,0.381,8.66412,66.46565,6.54962,1750160383.666756
214,7.133333333333333,1.422,10.008,0.534,1.44275,72.39695,-2.62595,1750160383.7000895
215,7.166666666666667,0.9,11.952,1.935,-16.34351,69.24427,-20.0229,1750160383.7334228
216,7.2,-2.093,10.307,1.788,0.85496,40.91603,-21.71756,1750160383.766756
217,7.233333333333333,-1.482,12.153,3.826,-16.00763,20.15267,-34.81679,1750160383.8000894
218,7.266666666666667,0.924,11.305,3.189,7.89313,25.58015,-27.74809,1750160383.8334227
219,7.3,2.107,8.775,4.575,19.74046,54.25191,-10.98473,1750160383.866756
220,7.333333333333333,1.034,7.863,3.627,26.99237,74.19847,-9.51145,1750160383.9000893
221,7.366666666666666,-0.508,7.786,3.11,15.25191,75.66412,-23.22901,1750160383.9334226
222,7.3999999999999995,-1.238,9.165,2.406,-5.38168,70.77099,-27.18321,1750160383.966756
223,7.433333333333334,-0.28,10.324,2.227,-8.39695,69.77863,-12.22901,1750160384.0000894
224,7.466666666666667,-0.304,10.276,2.255,-0.99237,74.54198,-3.55725,1750160384.0334227
225,7.5,-0.409,9.677,2.076,11.9084,79.72519,-6.44275,1750160384.066756
226,7.533333333333333,-0.263,8.698,2.035,9.60305,79.50382,-16.22137,1750160384.1000893
227,7.566666666666666,-0.824,8.736,2.136,3.38168,76.54962,-18.58015,1750160384.1334226
228,7.6,-0.821,9.881,2.289,6.20611,67.32061,-22.68702,1750160384.166756
229,7.633333333333333,-0.833,9.73,1.647,12.25191,56.85496,-29.0,1750160384.2000895
230,7.666666666666667,-1.152,9.629,1.259,11.74809,49.96183,-26.22901,1750160384.2334228
231,7.7,-0.776,10.06,1.958,2.9313,40.46565,-27.68702,1750160384.266756
232,7.733333333333333,-1.097,10.084,2.002,7.91603,32.83206,-27.27481,1750160384.3000894
233,7.766666666666667,0.35,9.881,2.09,3.35878,27.43511,-24.1374,1750160384.3334227
234,7.8,0.591,9.448,0.941,-1.71756,30.22901,-12.17557,1750160384.366756
235,7.833333333333333,-0.019,10.858,1.247,-25.01527,33.38168,4.9542,1750160384.4000893
236,7.866666666666666,0.204,11.885,3.268,-41.38168,53.54962,18.34351,1750160384.4334226
237,7.8999999999999995,0.218,10.195,3.845,-12.67176,65.8626,8.8855,1750160384.466756
238,7.933333333333334,-1.111,7.211,4.42,-2.82443,47.46565,-17.89313,1750160384.5000894
239,7.966666666666667,0.359,8.286,3.843,-23.42748,55.53435,4.23664,1750160384.5334227
240,8.0,1.669,11.284,3.199,-27.16794,62.51908,10.80153,1750160384.566756
241,8.033333333333333,0.218,11.212,2.744,-7.61832,59.41985,-21.79389,1750160384.6000893
242,8.066666666666666,0.35,10.898,1.99,2.68702,68.29008,-31.50382,1750160384.6334226
243,8.1,0.33,10.048,1.927,19.36641,73.53435,-25.0687,1750160384.666756
244,8.133333333333333,-0.053,8.928,1.666,17.30534,72.78626,-23.59542,1750160384.7000895
245,8.166666666666666,-0.026,8.894,1.915,8.03817,66.48092,-20.43511,1750160384.7334228
246,8.2,-0.874,8.669,0.962,5.55725,49.32061,-3.98473,1750160384.766756
247,8.233333333333333,-1.197,8.6,0.52,6.61069,40.89313,0.18321,1750160384.8000894
248,8.266666666666666,0.079,9.23,0.656,-5.82443,29.0458,-5.0458,1750160384.8334227
249,8.3,1.185,10.896,1.781,-18.01527,33.84733,-16.47328,1750160384.866756
250,8.333333333333334,0.654,10.939,1.827,-13.48855,34.98473,-16.80153,1750160384.9000893
251,8.366666666666667,-1.192,11.463,2.291,-5.37405,35.60305,-4.35878,1750160384.9334226
252,8.4,-2.804,13.563,3.898,-32.32061,4.12214,-29.9542,1750160384.966756
253,8.433333333333334,-0.306,11.83,3.29,4.03053,-23.79389,-32.00763,1750160385.0000894
254,8.466666666666667,2.004,9.318,4.391,20.35115,-0.64122,-7.9313,1750160385.0334227
255,8.5,2.801,7.456,4.022,22.47328,26.0,-5.48855,1750160385.066756
256,8.533333333333333,1.209,7.97,2.914,-8.78626,43.79389,-9.48855,1750160385.1000893
257,8.566666666666666,-0.148,9.74,3.141,-7.46565,39.96947,-9.66412,1750160385.1334226
258,8.6,-0.749,9.744,2.416,3.73282,33.61069,3.92366,1750160385.166756
259,8.633333333333333,-0.067,9.4,2.239,0.87786,34.68702,4.64122,1750160385.2000895
260,8.666666666666666,0.158,9.117,2.71,6.71756,45.45802,-2.41985,1750160385.2334228
261,8.7,0.663,9.562,2.243,13.79389,51.76336,-8.24427,1750160385.266756
262,8.733333333333333,-0.141,9.254,1.803,22.33588,47.84733,-11.48092,1750160385.3000894
263,8.766666666666666,-0.998,8.88,1.101,14.14504,37.01527,-9.73282,1750160385.3334227
264,8.8,-1.343,8.076,0.8,2.85496,27.19084,-8.58779,1750160385.366756
265,8.833333333333334,-1.427,8.82,1.599,-18.83969,5.87023,-8.35115,1750160385.4000893
266,8.866666666666667,-1.149,10.846,2.48,-20.61069,13.71756,-1.15267,1750160385.4334226
267,8.9,-0.666,11.435,2.184,-11.17557,9.26718,15.54962,1750160385.466756
268,8.933333333333334,1.367,13.12,4.19,-39.63359,29.67176,37.35878,1750160385.5000894
269,8.966666666666667,1.025,11.87,4.542,-19.65649,42.33588,14.83969,1750160385.5334227
270,9.0,-1.037,8.554,4.932,-8.9771,22.35115,-10.45802,1750160385.566756
271,9.033333333333333,-1.587,7.848,3.996,-15.49618,-7.0458,6.43511,1750160385.6000893
272,9.066666666666666,-0.646,9.443,3.371,-10.24427,-21.10687,29.26718,1750160385.6334226
273,9.1,0.79,11.337,2.557,-6.20611,-7.77099,12.1374,1750160385.666756
274,9.133333333333333,1.913,10.168,2.392,10.46565,-7.99237,-22.70229,1750160385.7000895
275,9.166666666666666,0.259,8.559,2.195,8.61069,-3.44275,-13.34351,1750160385.7334228
276,9.2,-0.759,8.796,2.126,18.45802,-15.62595,8.25954,1750160385.766756
277,9.233333333333333,0.412,8.44,1.369,20.87786,-20.22901,14.32061,1750160385.8000894
278,9.266666666666666,1.36,8.543,1.132,16.72519,-14.20611,20.8855,1750160385.8334227
279,9.3,1.63,8.437,0.967,8.9084,-9.62595,20.83206,1750160385.866756
280,9.333333333333334,1.427,9.85,1.176,-13.76336,-1.96947,9.72519,1750160385.9000893
281,9.366666666666667,-0.105,11.059,2.938,-30.65649,-12.68702,-13.29771,1750160385.9334226
282,9.4,-1.049,12.395,1.867,-15.0,-29.66412,-18.94656,1750160385.966756
283,9.433333333333334,0.395,12.493,3.39,-9.83206,-41.58779,-27.96183,1750160386.0000894
284,9.466666666666667,1.676,12.019,4.673,-5.92366,-32.52672,-35.08397,1750160386.0334227
285,9.5,1.848,8.282,3.998,24.16031,-8.57252,-28.26718,1750160386.066756
286,9.533333333333333,2.162,6.369,3.577,4.36641,15.0458,-20.96947,1750160386.1000893
287,9.566666666666666,0.007,9.936,3.948,-25.25954,11.73282,-22.62595,1750160386.1334226
288,9.6,-1.63,10.628,3.029,7.80153,-1.70992,-4.38168,1750160386.166756
289,9.633333333333333,-0.697,8.859,2.612,-1.09924,-9.72519,19.07634,1750160386.2000895
290,9.666666666666666,0.0,9.615,2.454,-2.35115,-15.54198,16.36641,1750160386.2334228
291,9.7,0.464,9.591,2.851,15.53435,-1.68702,14.47328,1750160386.266756
292,9.733333333333333,1.29,8.971,2.277,17.52672,0.80153,2.93893,1750160386.3000894
293,9.766666666666666,0.201,8.586,1.858,21.0916,-0.58015,-3.87023,1750160386.3334227
294,9.8,-0.577,8.368,0.804,11.77099,-6.74046,-1.50382,1750160386.366756
295,9.833333333333334,-0.321,8.322,0.582,-4.96947,-18.45802,-5.83969,1750160386.4000893
296,9.866666666666667,-0.608,9.797,2.464,-17.79389,-16.42748,6.41221,1750160386.4334226
297,9.9,1.444,10.063,1.733,-23.83969,-2.98473,15.77863,1750160386.466756
298,9.933333333333334,2.174,11.693,2.521,-42.27481,18.48092,30.8855,1750160386.5000894
299,9.966666666666667,0.979,13.92,5.018,-45.94656,54.41985,38.85496,1750160386.5334227
300,10.0,0.062,10.925,5.011,-6.67176,36.70229,-4.29008,1750160386.566756
301,10.033333333333333,-1.075,8.452,4.144,-1.54198,11.98473,-23.45038,1750160386.6000893
302,10.066666666666666,0.223,9.206,3.041,-9.80153,9.01527,4.49618,1750160386.6334226
303,10.1,0.223,9.206,3.041,-9.80153,9.01527,4.49618,1750160386.666756
304,10.133333333333333,0.407,10.783,2.164,-9.25191,6.62595,1.58015,1750160386.7000895
305,10.166666666666666,0.922,9.519,1.65,9.76336,6.03053,-17.25954,1750160386.7334228
306,10.2,0.709,8.636,1.683,3.1374,14.18321,-9.29771,1750160386.766756
307,10.233333333333333,0.694,8.93,1.745,6.74809,11.9771,1.03817,1750160386.8000894
308,10.266666666666666,0.007,9.155,1.767,19.96183,4.68702,5.60305,1750160386.8334227
309,10.3,0.113,8.43,1.348,25.77099,0.47328,14.43511,1750160386.866756
310,10.333333333333334,0.783,8.013,0.467,23.53435,-2.18321,15.80916,1750160386.9000893
311,10.366666666666667,1.93,9.172,-0.079,7.69466,7.54198,2.22901,1750160386.9334226
312,10.4,1.741,11.21,2.823,-21.25191,11.80153,-14.55725,1750160386.966756
313,10.433333333333334,-1.549,10.676,2.205,-1.35115,-2.64885,-5.0458,1750160387.0000894
314,10.466666666666667,-1.935,11.59,3.627,-11.9771,-33.96183,-25.8855,1750160387.0334227
315,10.5,-0.668,12.172,4.049,-36.90076,-56.24427,-46.03817,1750160387.066756
316,10.533333333333333,1.748,11.818,4.872,-3.0916,-44.77863,-44.40458,1750160387.1000893
317,10.566666666666666,3.139,8.696,3.929,17.16031,-9.72519,-33.83206,1750160387.1334226
318,10.6,2.679,8.186,2.722,-1.0687,22.14504,-18.29008,1750160387.166756
319,10.633333333333333,0.294,9.826,2.538,-11.99237,24.30534,1.51145,1750160387.2000895
320,10.666666666666666,-1.709,9.268,2.363,-4.32824,4.0916,16.66412,1750160387.2334228
321,10.7,-1.271,9.862,3.045,-7.46565,0.61069,28.09924,1750160387.266756
322,10.733333333333333,0.201,9.991,2.327,11.32061,-3.20611,13.62595,1750160387.3000894
323,10.766666666666666,1.341,9.009,1.858,20.8626,5.28244,2.32824,1750160387.3334227
324,10.8,0.769,8.519,1.348,21.71756,11.9542,-5.58779,1750160387.366756
325,10.833333333333334,-0.512,8.305,0.895,16.49618,13.35115,-6.24427,1750160387.4000893
326,10.866666666666667,-0.788,8.622,0.424,6.05344,-1.66412,-9.69466,1750160387.4334226
327,10.9,-1.731,9.273,1.568,-8.48092,-14.09924,-0.12977,1750160387.466756
328,10.933333333333334,1.295,10.206,1.298,-13.83206,-1.12214,2.63359,1750160387.5000894
329,10.966666666666667,0.46,10.822,2.397,-32.0687,8.57252,24.61069,1750160387.5334227
330,11.0,0.869,13.551,4.396,-58.56489,30.29008,44.83206,1750160387.566756
331,11.033333333333333,0.323,11.715,5.104,-12.63359,19.90076,27.67176,1750160387.6000893
332,11.066666666666666,-1.377,9.694,5.329,2.18321,-2.58779,12.92366,1750160387.6334226
333,11.1,0.005,9.127,3.381,-8.48092,-12.60305,17.03817,1750160387.666756
334,11.133333333333333,1.283,11.844,3.189,-15.44275,1.85496,1.87023,1750160387.7000895
335,11.166666666666666,1.923,10.18,2.43,6.42748,10.87786,-16.19084,1750160387.7334228
336,11.2,0.718,8.959,2.124,6.96947,26.80153,-20.54198,1750160387.766756
337,11.233333333333333,0.232,9.143,2.243,8.79389,30.53435,-15.16031,1750160387.8000894
338,11.266666666666666,-0.826,8.835,1.64,29.9542,22.54962,-5.8855,1750160387.8334227
339,11.3,0.357,8.566,0.967,25.28244,18.28244,0.0916,1750160387.866756
340,11.333333333333334,-0.045,8.672,0.702,12.26718,21.50382,6.79389,1750160387.9000893
341,11.366666666666667,-0.184,8.104,0.618,18.0458,14.93893,8.08397,1750160387.9334226
342,11.4,1.724,9.606,1.379,1.41985,14.55725,1.1374,1750160387.966756
343,11.433333333333334,0.017,10.807,2.6,-27.05344,11.14504,-11.26718,1750160388.0000894
344,11.466666666666667,-2.729,10.484,0.819,-2.9771,-2.09924,-0.82443,1750160388.0334227
345,11.5,0.048,11.468,2.263,-13.83206,-17.28244,-20.26718,1750160388.066756
346,11.533333333333333,0.634,13.748,3.879,-52.48092,-22.19847,-60.1374,1750160388.1000893
347,11.566666666666666,1.891,13.154,4.35,12.51145,-20.90076,-51.0229,1750160388.1334226
348,11.6,1.674,7.702,3.752,46.20611,9.84733,-18.58779,1750160388.166756
349,11.633333333333333,1.844,7.221,3.668,-1.73282,22.0458,-0.99237,1750160388.2000895
350,11.666666666666666,-0.723,9.601,4.25,6.01527,-2.21374,5.08397,1750160388.2334228
351,11.7,-2.394,8.952,3.043,9.49618,-28.16031,20.50382,1750160388.266756
352,11.733333333333333,-1.642,9.938,2.976,-12.16794,-39.16031,18.76336,1750160388.3000894
353,11.766666666666666,1.968,9.457,2.083,1.48855,-27.29008,7.96947,1750160388.3334227
354,11.8,2.978,8.856,2.035,10.94656,4.75573,6.16031,1750160388.366756
355,11.833333333333334,0.713,9.448,1.657,9.42748,14.0687,-0.87023,1750160388.4000893
356,11.866666666666667,-0.737,9.78,1.008,14.03053,6.91603,-6.90076,1750160388.4334226
357,11.9,-0.326,8.839,0.8,10.43511,-3.68702,-9.23664,1750160388.466756
358,11.933333333333334,-0.769,8.102,0.781,-2.47328,-8.15267,4.68702,1750160388.5000894
359,11.966666666666667,-0.606,9.771,2.133,-17.15267,-3.36641,13.77099,1750160388.5334227
360,12.0,1.089,10.843,1.408,-20.8855,3.16794,9.89313,1750160388.566756
361,12.033333333333333,2.887,12.888,3.718,-34.79389,24.37405,36.44275,1750160388.6000893
362,12.066666666666666,0.555,12.428,3.97,-36.10687,50.51908,35.64122,1750160388.6334226
363,12.1,-2.263,9.057,5.162,-12.08397,15.12214,2.03053,1750160388.666756
364,12.133333333333333,-3.218,7.63,4.154,-6.69466,-26.41985,-2.83969,1750160388.7000895
365,12.166666666666666,1.348,10.496,2.358,-20.68702,-14.58779,17.53435,1750160388.7334228
366,12.2,2.205,10.992,2.488,0.58779,-15.62595,-4.24427,1750160388.766756
367,12.233333333333333,1.264,9.718,2.191,6.17557,-0.41221,-22.56489,1750160388.8000894
368,12.266666666666666,1.039,8.94,1.93,3.18321,12.25191,-17.84733,1750160388.8334227
369,12.3,0.512,9.124,2.064,14.99237,16.76336,-7.80916,1750160388.866756
370,12.333333333333334,0.175,8.827,1.592,29.98473,15.43511,1.1374,1750160388.9000893
371,12.366666666666667,0.816,8.435,1.274,25.46565,17.92366,3.75573,1750160388.9334226
372,12.4,1.609,8.461,0.575,19.43511,23.56489,4.30534,1750160388.966756
373,12.433333333333334,1.82,8.59,0.235,9.05344,29.81679,-3.12214,1750160389.0000894
374,12.466666666666667,0.912,10.896,2.526,-17.69466,31.23664,-11.85496,1750160389.0334227
375,12.5,-2.217,10.379,1.712,-9.46565,9.48855,-12.62595,1750160389.066756
376,12.533333333333333,-0.405,11.516,1.36,-5.64122,-8.87023,-20.84733,1750160389.1000893
377,12.566666666666666,0.146,13.781,3.031,-40.46565,-13.99237,-41.57252,1750160389.1334226
378,12.6,0.821,13.403,4.35,3.80916,-29.0916,-46.14504,1750160389.166756
379,12.633333333333333,1.29,6.493,4.377,26.92366,-1.12214,-13.38168,1750160389.2000895
380,12.666666666666666,0.651,7.887,3.503,-16.73282,10.37405,-14.63359,1750160389.2334228
381,12.7,-0.378,11.322,3.347,-6.35115,0.25954,-13.36641,1750160389.266756
382,12.733333333333333,-0.481,9.436,2.483,13.59542,-1.32061,7.60305,1750160389.3000894
383,12.766666666666666,-0.541,9.278,2.866,7.18321,-5.24427,10.84733,1750160389.3334227
384,12.8,0.596,9.448,2.514,17.45038,-2.29008,6.0687,1750160389.366756
385,12.833333333333334,1.116,9.503,2.109,14.1374,5.60305,-0.16794,1750160389.4000893
386,12.866666666666667,0.931,9.313,1.607,24.0229,9.66412,-1.1374,1750160389.4334226
387,12.9,0.309,8.358,0.864,18.96183,13.67176,-4.22137,1750160389.466756
388,12.933333333333334,-0.034,7.889,0.541,1.14504,4.54198,-10.00763,1750160389.5000894
389,12.966666666666667,-1.185,8.765,2.107,-18.8855,-0.82443,-6.58779,1750160389.5334227
390,13.0,0.63,11.298,2.957,-21.62595,6.72519,-5.51145,1750160389.566756
391,13.033333333333333,0.299,11.03,1.025,-11.50382,-0.22901,-0.20611,1750160389.6000893
392,13.066666666666666,0.239,12.548,2.935,-37.66412,18.17557,19.20611,1750160389.6334226
393,13.1,1.714,11.322,3.251,-32.34351,42.07634,14.35878,1750160389.666756
394,13.133333333333333,0.211,7.805,4.554,-2.77863,41.83206,-3.54198,1750160389.7000895
395,13.166666666666666,0.855,8.167,3.637,-16.80153,45.63359,17.20611,1750160389.7334228
396,13.2,0.632,11.645,3.074,-26.8626,54.25191,12.9771,1750160389.766756
397,13.233333333333333,0.972,11.768,2.643,-3.29008,46.82443,-24.24427,1750160389.8000894
398,13.266666666666666,1.065,9.737,2.229,11.08397,58.52672,-26.29008,1750160389.8334227
399,13.299999999999999,1.032,9.232,1.571,4.29008,69.77099,-21.93893,1750160389.866756
400,13.333333333333334,0.22,9.644,2.207,8.84733,69.51145,-18.55725,1750160389.9000893
401,13.366666666666667,-0.591,8.645,1.563,27.83206,56.19084,-14.35878,1750160389.9334226
402,13.4,-0.005,8.14,0.907,16.9313,48.48092,-0.80153,1750160389.966756
403,13.433333333333334,-0.302,8.72,0.745,15.80916,46.80916,8.81679,1750160390.0000894
404,13.466666666666667,-0.208,8.861,0.086,14.69466,36.51908,6.09924,1750160390.0334227
405,13.5,1.621,9.864,0.553,2.25954,30.79389,-12.80916,1750160390.066756
406,13.533333333333333,-0.005,9.833,2.04,-15.32061,27.31298,-18.34351,1750160390.1000893
407,13.566666666666666,-0.879,10.637,1.372,-10.01527,23.1145,1.24427,1750160390.1334226
408,13.6,-2.181,13.278,3.168,-39.23664,7.21374,-27.0,1750160390.166756
409,13.633333333333333,-0.189,13.649,5.837,-34.48092,-30.45038,-76.06107,1750160390.2000895
410,13.666666666666666,2.547,8.703,4.681,33.77099,0.71756,-54.1374,1750160390.2334228
411,13.7,3.737,6.292,3.649,-2.0,39.03053,-29.16794,1750160390.266756
412,13.733333333333333,0.802,12.368,3.297,-40.54198,43.0229,-11.19084,1750160390.3000894
413,13.766666666666666,-0.493,10.242,3.002,26.48855,29.60305,-2.89313,1750160390.3334227
414,13.799999999999999,-0.936,8.641,3.29,14.42748,21.76336,23.54198,1750160390.366756
415,13.833333333333334,-1.312,9.306,2.859,1.49618,4.70229,28.48855,1750160390.4000893
416,13.866666666666667,0.946,9.091,2.176,11.18321,5.32824,16.14504,1750160390.4334226
417,13.9,1.697,8.444,1.377,19.45038,22.80916,4.67939,1750160390.466756
418,13.933333333333334,0.407,8.514,1.147,14.06107,27.0,-10.16794,1750160390.5000894
419,13.966666666666667,-0.491,8.605,0.646,12.27481,17.28244,-10.32824,1750160390.5334227
420,14.0,-0.989,8.016,1.063,1.08397,7.46565,-5.0916,1750160390.566756
421,14.033333333333333,-0.551,9.589,2.217,-19.1374,7.63359,-1.70229,1750160390.6000893
422,14.066666666666666,1.053,10.913,1.13,-19.53435,16.38931,-0.50382,1750160390.6334226
423,14.1,-0.022,12.232,2.782,-30.67176,27.76336,30.85496,1750160390.666756
424,14.133333333333333,0.318,9.807,5.162,-21.29008,49.79389,20.51908,1750160390.7000895
425,14.166666666666666,-1.008,7.966,4.039,-12.30534,33.41221,3.71756,1750160390.7334228
426,14.2,1.302,11.72,3.045,-37.96947,49.55725,4.62595,1750160390.766756
427,14.233333333333333,1.942,11.863,2.734,-14.39695,51.12214,-16.43511,1750160390.8000894
428,14.266666666666666,0.455,9.309,2.126,11.36641,54.16794,-25.0916,1750160390.8334227
429,14.299999999999999,-0.005,8.475,1.547,3.44275,66.60305,-19.0458,1750160390.866756
430,14.333333333333334,-0.304,9.0,1.956,11.69466,71.41221,-8.16794,1750160390.9000893
431,14.366666666666667,-1.03,8.914,1.532,25.56489,52.94656,1.8626,1750160390.9334226
432,14.4,-1.437,9.34,1.75,15.39695,34.29008,7.51145,1750160390.966756
433,14.433333333333334,-0.4,9.249,1.08,21.96183,13.31298,6.45802,1750160391.0000894
434,14.466666666666667,0.211,8.887,0.357,20.67939,18.83969,7.59542,1750160391.0334227
435,14.5,2.136,9.668,-0.041,8.33588,42.92366,-6.06107,1750160391.066756
436,14.533333333333333,1.767,10.511,1.465,-10.47328,54.69466,-17.58015,1750160391.1000893
437,14.566666666666666,-1.978,10.422,1.484,-1.8626,47.32061,-9.23664,1750160391.1334226
438,14.6,-1.985,10.52,2.37,-0.19847,30.96947,-18.37405,1750160391.166756
439,14.633333333333333,-1.906,11.744,4.24,-53.54198,7.05344,-60.40458,1750160391.2000895
440,14.666666666666666,1.199,11.456,5.339,-5.46565,5.55725,-67.16031,1750160391.2334228
441,14.7,2.986,8.286,4.013,13.8855,38.51145,-51.32824,1750160391.266756
442,14.733333333333333,1.678,10.384,2.452,-27.62595,72.18321,-24.50382,1750160391.3000894
443,14.766666666666666,-1.987,10.973,0.792,-0.09924,70.48855,0.38168,1750160391.3334227
444,14.799999999999999,-0.508,8.851,2.612,16.30534,62.72519,13.31298,1750160391.366756
445,14.833333333333334,-0.814,8.332,2.033,-2.66412,60.52672,17.20611,1750160391.4000893
446,14.866666666666667,-0.8,9.318,2.064,2.75573,50.54962,6.45038,1750160391.4334226
447,14.9,-0.208,8.935,2.002,16.46565,45.48092,-7.07634,1750160391.466756
448,14.933333333333334,0.328,8.976,1.307,6.54198,45.83969,-12.90076,1750160391.5000894
449,14.966666666666667,0.062,9.436,1.092,7.65649,48.00763,-13.31298,1750160391.5334227
450,15.0,-0.34,9.718,1.307,15.38168,42.64122,-14.9542,1750160391.566756
451,15.033333333333333,-1.506,9.747,1.037,12.22901,35.9542,-15.69466,1750160391.6000893
452,15.066666666666666,0.055,9.596,1.437,7.55725,30.63359,-23.0687,1750160391.6334226
453,15.1,1.144,9.349,1.745,5.54198,26.63359,-19.22137,1750160391.666756
454,15.133333333333333,-1.041,9.78,1.896,-9.36641,24.03817,2.58779,1750160391.7000895
455,15.166666666666666,0.041,11.933,2.1,-52.54198,34.72519,24.48855,1750160391.7334228
456,15.2,0.931,11.72,3.639,-34.06107,61.03053,17.22901,1750160391.766756
457,15.233333333333333,-1.063,9.194,4.468,1.44275,58.72519,-0.77863,1750160391.8000894
458,15.266666666666666,-0.776,7.626,4.061,7.83969,52.32824,-1.73282,1750160391.8334227
459,15.299999999999999,0.397,7.661,3.412,-19.39695,59.58015,9.17557,1750160391.866756
460,15.333333333333334,1.391,11.76,2.119,-33.16794,72.9084,11.00763,1750160391.9000893
461,15.366666666666667,0.283,11.368,1.511,-6.44275,69.54962,-17.58015,1750160391.9334226
462,15.4,-0.156,10.403,1.621,-9.87786,75.81679,-21.49618,1750160391.966756
463,15.433333333333334,-0.836,10.52,1.513,0.14504,70.64885,-15.30534,1750160392.0000894
464,15.466666666666667,-0.599,10.053,1.484,14.34351,63.0458,-9.66412,1750160392.0334227
465,15.5,-0.01,9.345,1.216,24.61832,55.51908,-10.45038,1750160392.066756
466,15.533333333333333,-0.026,8.679,0.912,14.07634,53.75573,-3.0916,1750160392.1000893
467,15.566666666666666,0.12,8.856,0.903,11.53435,51.29008,3.46565,1750160392.1334226
468,15.6,-0.314,8.993,0.419,16.63359,44.59542,4.16794,1750160392.166756
469,15.633333333333333,0.761,9.261,0.553,10.00763,44.71756,0.1145,1750160392.2000895
470,15.666666666666666,0.656,10.396,1.307,3.43511,39.43511,-15.59542,1750160392.2334228
471,15.7,-0.761,9.895,1.386,-2.17557,34.77863,-27.31298,1750160392.266756
472,15.733333333333333,-1.156,9.723,1.82,-0.18321,30.65649,-27.77099,1750160392.3000894
473,15.766666666666666,-2.488,14.09,3.833,-50.99237,7.26718,-44.70992,1750160392.3334227
474,15.799999999999999,-0.424,13.496,3.06,-8.46565,-3.05344,-30.32061,1750160392.366756
475,15.833333333333334,2.772,9.187,4.341,27.22901,44.00763,-12.64885,1750160392.4000893
476,15.866666666666667,3.675,7.104,3.359,33.54198,73.61832,-18.90076,1750160392.4334226
477,15.9,0.421,7.851,2.665,12.31298,92.19847,-18.29771,1750160392.466756
478,15.933333333333334,-2.437,11.08,2.284,-4.38931,65.39695,-16.14504,1750160392.5000894
479,15.966666666666667,-2.595,9.029,2.425,14.72519,65.51908,6.9771,1750160392.5334227
480,16.0,-0.723,9.991,2.222,0.22901,59.37405,7.09924,1750160392.566756
481,16.03333333333333,0.438,9.737,1.836,17.49618,61.06107,-5.01527,1750160392.6000893
482,16.066666666666666,0.95,8.729,1.19,12.63359,74.38168,-14.22901,1750160392.6334226
483,16.1,-0.575,8.813,0.735,14.41221,70.83969,-18.54962,1750160392.666756
484,16.133333333333333,-1.425,8.837,0.553,10.8855,62.8626,-19.32061,1750160392.7000895
485,16.166666666666668,-1.573,8.583,0.132,-4.9313,50.16031,-22.65649,1750160392.7334228
486,16.2,-1.307,9.57,2.217,-24.78626,36.23664,-24.31298,1750160392.766756
487,16.233333333333334,-0.558,11.423,2.207,-13.98473,36.71756,-19.76336,1750160392.8000894
488,16.266666666666666,0.347,12.361,1.116,-26.45038,50.9542,2.61069,1750160392.8334227
489,16.3,-0.776,13.891,3.129,-37.25954,57.48092,-6.01527,1750160392.866756
490,16.333333333333332,-0.625,11.791,4.542,-9.12977,48.51145,-28.44275,1750160392.9000893
491,16.366666666666667,0.225,7.889,4.908,8.87023,41.0458,-26.70992,1750160392.9334226
492,16.4,0.946,6.268,4.197,-2.37405,43.0,-15.80153,1750160392.966756
493,16.433333333333334,2.071,8.495,3.587,-27.58779,58.17557,-11.52672,1750160393.0000894
494,16.466666666666665,1.748,12.835,2.361,-19.41221,58.93893,-28.43511,1750160393.0334227
495,16.5,0.931,10.534,1.391,16.9542,56.74809,-31.77863,1750160393.066756
496,16.53333333333333,0.74,8.157,1.245,2.69466,60.43511,-16.00763,1750160393.1000893
497,16.566666666666666,0.603,8.839,1.597,-7.63359,61.9084,-9.9313,1750160393.1334226
498,16.6,-0.189,9.27,1.99,-3.19084,50.0229,-4.28244,1750160393.166756
499,16.633333333333333,-0.172,8.389,1.966,7.78626,33.46565,8.25191,1750160393.2000895
500,16.666666666666668,-0.158,8.485,1.779,-0.41985,24.54198,23.21374,1750160393.2334228
501,16.7,-0.113,9.474,1.106,2.59542,14.09924,29.96183,1750160393.266756
502,16.733333333333334,0.907,9.591,0.534,18.58779,9.48092,29.51145,1750160393.3000894
503,16.766666666666666,2.133,9.199,0.596,19.75573,16.21374,18.87786,1750160393.3334227
504,16.8,1.58,10.187,1.824,-7.81679,10.54962,11.66412,1750160393.366756
505,16.833333333333332,-0.962,11.037,1.726,-14.07634,1.54962,6.47328,1750160393.4000893
506,16.866666666666667,-0.922,11.93,2.148,-3.19084,-14.37405,-3.47328,1750160393.4334226
507,16.9,-0.225,12.744,3.4,-18.83969,-43.51908,-33.41985,1750160393.466756
508,16.933333333333334,1.267,12.203,5.444,-6.76336,-55.98473,-43.33588,1750160393.5000894
509,16.966666666666665,1.985,7.796,4.587,30.03053,-31.06107,-21.61832,1750160393.5334227
510,17.0,2.018,6.941,3.428,-8.09924,0.51145,-10.9771,1750160393.566756
511,17.03333333333333,0.194,10.4,3.493,-29.9084,3.71756,-0.14504,1750160393.6000893
512,17.066666666666666,-0.062,9.675,3.165,5.22901,-11.30534,11.93893,1750160393.6334226
513,17.1,-0.266,8.784,2.083,-4.77099,-22.9542,23.61832,1750160393.666756
514,17.133333333333333,0.141,9.692,1.992,0.15267,-29.61069,20.99237,1750160393.7000895
515,17.166666666666668,1.123,9.146,1.774,19.17557,-24.0229,10.93893,1750160393.7334228
516,17.2,0.958,8.823,1.367,15.40458,-21.60305,2.49618,1750160393.766756
517,17.233333333333334,0.369,8.744,1.053,13.96947,-25.31298,-2.92366,1750160393.8000894
518,17.266666666666666,-0.484,8.861,0.943,8.57252,-33.91603,2.62595,1750160393.8334227
519,17.3,-0.685,9.658,1.891,-13.57252,-30.16794,12.50382,1750160393.866756
520,17.333333333333332,1.47,10.386,0.57,-22.08397,-18.62595,16.23664,1750160393.9000893
521,17.366666666666667,0.711,12.153,0.625,-24.84733,-20.63359,14.41985,1750160393.9334226
522,17.4,1.209,12.857,4.075,-46.45802,1.51908,27.30534,1750160393.966756
523,17.433333333333334,1.645,11.056,5.25,-29.84733,17.61069,24.60305,1750160394.0000894
524,17.466666666666665,-1.453,9.052,4.604,-0.49618,-8.70992,10.51908,1750160394.0334227
525,17.5,-0.232,9.098,3.299,-9.68702,-20.65649,11.18321,1750160394.066756
526,17.53333333333333,1.896,11.459,2.203,-21.32824,-7.0916,0.89313,1750160394.1000893
527,17.566666666666666,2.447,10.214,2.155,6.01527,-2.45802,-14.05344,1750160394.1334226
528,17.6,1.518,8.32,2.061,9.59542,12.80916,-18.82443,1750160394.166756
529,17.633333333333333,1.36,8.14,2.188,-8.0687,21.93893,-15.34351,1750160394.2000895
530,17.666666666666668,0.488,9.093,1.776,-1.30534,21.41221,-10.45038,1750160394.2334228
531,17.7,0.709,9.4,1.609,7.99237,15.84733,-8.22901,1750160394.266756
532,17.733333333333334,1.288,9.926,0.986,9.70992,18.82443,-8.34351,1750160394.3000894
533,17.766666666666666,0.802,9.56,0.362,21.67939,25.57252,-1.8855,1750160394.3334227
534,17.8,1.343,8.655,0.139,31.51908,29.64122,0.21374,1750160394.366756
535,17.833333333333332,1.458,9.957,0.644,-1.91603,30.1145,-7.79389,1750160394.4000893
536,17.866666666666667,-0.869,10.781,2.691,-16.37405,8.1145,-18.56489,1750160394.4334226
537,17.9,-0.962,10.4,0.134,9.47328,-9.0458,-11.40458,1750160394.466756
538,17.933333333333334,1.702,11.016,3.175,-20.69466,-11.70992,-28.87023,1750160394.5000894
539,17.966666666666665,0.699,13.704,6.888,-37.67939,-17.23664,-57.21374,1750160394.5334227
540,18.0,1.214,9.787,4.135,35.24427,3.38168,-40.51145,1750160394.566756
541,18.03333333333333,1.714,7.544,2.533,6.81679,15.26718,-23.34351,1750160394.6000893
542,18.066666666666666,0.795,10.065,3.129,-23.46565,14.29771,11.21374,1750160394.6334226
543,18.1,-1.03,9.934,2.658,15.9084,-1.98473,27.0,1750160394.666756
544,18.133333333333333,-1.841,9.56,2.265,6.53435,-18.48092,32.90076,1750160394.7000895
545,18.166666666666668,-0.144,9.481,2.514,12.67176,-26.59542,20.80916,1750160394.7334228
546,18.2,1.882,8.633,2.006,24.22901,-14.09924,15.48092,1750160394.766756
547,18.233333333333334,1.566,8.399,1.199,19.15267,-4.41985,8.33588,1750160394.8000894
548,18.266666666666666,0.723,8.691,0.862,11.42748,-2.52672,-0.19847,1750160394.8334227
549,18.3,0.366,8.746,0.661,9.45802,-6.67939,-2.05344,1750160394.866756
550,18.333333333333332,-0.565,9.294,1.018,3.45802,-16.80916,0.45802,1750160394.9000893
551,18.366666666666667,0.424,10.022,1.815,-9.10687,-4.62595,7.99237,1750160394.9334226
552,18.4,1.494,10.494,0.881,-11.48092,0.69466,9.93893,1750160394.966756
553,18.433333333333334,0.582,12.385,3.773,-33.35115,14.87023,35.85496,1750160395.0000894
554,18.466666666666665,1.109,12.103,5.136,-55.0687,38.98473,39.16031,1750160395.0334227
555,18.5,-0.886,9.914,5.478,-8.03053,18.0916,8.56489,1750160395.066756
556,18.53333333333333,0.086,8.966,3.689,-10.41221,0.0687,3.9771,1750160395.1000893
557,18.566666666666666,1.281,11.576,3.124,-28.60305,8.77099,-1.23664,1750160395.1334226
558,18.6,0.831,10.211,2.825,5.38168,11.51145,-23.19084,1750160395.166756
559,18.633333333333333,0.773,8.88,1.669,1.15267,25.03053,-23.96183,1750160395.2000895
560,18.666666666666668,0.694,9.009,2.55,-6.20611,31.39695,-17.52672,1750160395.2334228
561,18.7,-0.115,9.175,2.332,9.36641,29.38931,-11.41985,1750160395.266756
562,18.733333333333334,0.024,8.442,1.616,22.29771,18.62595,-2.28244,1750160395.3000894
563,18.766666666666666,-0.038,7.788,1.283,24.48855,15.56489,5.29008,1750160395.3334227
564,18.8,0.405,8.188,0.357,16.35878,9.15267,18.10687,1750160395.366756
565,18.833333333333332,1.358,9.117,0.12,12.09924,11.67939,20.89313,1750160395.4000893
566,18.866666666666667,2.047,11.167,1.889,1.96183,7.82443,-3.32824,1750160395.4334226
567,18.9,-0.153,10.24,1.851,-7.9771,-1.83969,-22.74046,1750160395.466756
568,18.933333333333334,-0.577,11.665,2.27,-12.44275,-10.38931,-27.56489,1750160395.5000894
569,18.966666666666665,-0.994,14.018,4.247,-40.87023,-35.69466,-52.93893,1750160395.5334227
570,19.0,0.493,12.969,4.223,5.67939,-33.61832,-50.94656,1750160395.566756
571,19.03333333333333,2.588,8.179,3.512,26.80153,2.62595,-28.54962,1750160395.6000893
572,19.066666666666666,3.598,6.91,2.789,4.99237,27.96183,-23.16031,1750160395.6334226
573,19.1,0.881,9.996,3.457,-17.28244,35.8626,-2.48855,1750160395.666756
574,19.133333333333333,-2.38,9.273,3.194,14.41221,10.32824,31.76336,1750160395.7000895
575,19.166666666666668,-1.176,9.653,2.5,4.9771,-6.21374,20.73282,1750160395.7334228
576,19.2,1.944,8.976,1.635,11.46565,4.50382,7.40458,1750160395.766756
577,19.233333333333334,2.847,8.056,1.204,9.61069,27.9542,3.26718,1750160395.8000894
578,19.266666666666666,0.706,8.667,1.041,9.74046,37.65649,-7.55725,1750160395.8334227
579,19.3,-0.682,8.435,0.18,6.54962,34.96947,-12.00763,1750160395.866756
580,19.333333333333332,-1.195,8.408,0.555,-5.50382,22.68702,-11.33588,1750160395.9000893
581,19.366666666666667,-0.613,10.25,2.612,-28.39695,28.21374,-5.26718,1750160395.9334226
582,19.4,0.563,10.822,0.318,-14.40458,26.73282,-2.56489,1750160395.966756
583,19.433333333333334,-1.188,11.99,1.906,-24.64122,24.41221,9.40458,1750160396.0000894
584,19.466666666666665,0.96,12.73,5.346,-58.44275,39.56489,21.60305,1750160396.0334227
585,19.5,0.678,9.742,4.973,-14.0,43.46565,14.12214,1750160396.066756
586,19.53333333333333,-0.675,8.408,4.396,-8.54962,25.83969,8.84733,1750160396.1000893
587,19.566666666666666,0.086,10.8,3.515,-26.85496,23.15267,10.0687,1750160396.1334226
588,19.6,1.47,11.492,2.607,-12.75573,24.41985,-8.28244,1750160396.166756
589,19.633333333333333,1.109,10.192,2.231,3.41985,26.0916,-24.48092,1750160396.2000895
590,19.666666666666668,0.35,8.894,1.53,0.62595,33.83206,-22.12214,1750160396.2334228
591,19.7,-0.448,9.069,1.93,7.03817,35.15267,-11.17557,1750160396.266756
592,19.733333333333334,-0.242,8.55,1.125,19.58015,24.8855,-4.77863,1750160396.3000894
593,19.766666666666666,0.225,8.282,0.836,17.56489,24.26718,5.63359,1750160396.3334227
594,19.8,0.543,7.602,0.893,12.32824,24.38168,13.94656,1750160396.366756
595,19.833333333333332,0.713,7.788,0.12,5.51908,26.40458,15.78626,1750160396.4000893
596,19.866666666666667,1.504,9.835,0.606,-11.35878,26.09924,0.72519,1750160396.4334226
597,19.9,-0.546,11.969,1.93,-23.62595,1.84733,-31.63359,1750160396.466756
598,19.933333333333334,-2.207,10.973,1.125,5.47328,-31.23664,-33.75573,1750160396.5000894
599,19.966666666666665,-1.358,11.672,2.612,-6.91603,-49.10687,-37.0458,1750160396.5334227
600,20.0,1.03,12.998,4.068,-28.29008,-46.12977,-39.12977,1750160396.566756
601,20.03333333333333,2.88,11.188,4.19,12.37405,-9.40458,-38.23664,1750160396.6000893
602,20.066666666666666,4.13,7.86,3.551,15.51908,47.52672,-50.29771,1750160396.6334226
603,20.1,1.733,9.754,2.691,-21.00763,75.70229,-23.9084,1750160396.666756
604,20.133333333333333,-1.477,10.685,1.267,-1.48092,50.14504,8.56489,1750160396.7000895
605,20.166666666666668,-1.925,8.452,1.618,4.55725,48.03053,27.33588,1750160396.7334228
606,20.2,0.031,9.881,2.203,-5.74809,37.35115,16.9313,1750160396.766756
607,20.233333333333334,1.068,10.068,1.844,23.0458,40.33588,2.63359,1750160396.8000894
608,20.266666666666666,0.551,8.605,1.769,32.72519,44.26718,-7.59542,1750160396.8334227
609,20.3,-0.642,8.808,1.59,27.61832,41.87023,-9.48092,1750160396.866756
610,20.333333333333332,-0.962,9.096,1.132,21.61832,34.82443,-12.39695,1750160396.9000893
611,20.366666666666667,-0.927,8.897,0.388,13.54198,27.67176,-13.35115,1750160396.9334226
612,20.4,-0.953,9.1,0.702,0.44275,22.15267,-9.9084,1750160396.966756
613,20.433333333333334,-0.417,9.919,1.834,-13.30534,24.77863,-4.55725,1750160397.0000894
614,20.466666666666665,-0.294,10.309,0.259,-8.82443,32.87023,-0.81679,1750160397.0334227
615,20.5,0.357,12.651,2.148,-26.16031,52.54962,14.32824,1750160397.066756
616,20.53333333333333,1.946,12.629,4.484,-22.94656,82.67176,17.48855,1750160397.1000893
617,20.566666666666666,0.299,9.225,4.554,9.24427,89.01527,-9.59542,1750160397.1334226
618,20.6,-0.299,8.001,4.379,-8.67939,83.61832,-11.18321,1750160397.166756
619,20.633333333333333,-0.965,8.722,4.259,-17.79389,66.29008,-2.06107,1750160397.2000895
620,20.666666666666668,0.347,11.071,2.313,-21.35115,61.54962,-3.00763,1750160397.2334228
621,20.7,0.843,10.994,2.952,8.32824,63.30534,-19.32824,1750160397.266756
622,20.733333333333334,0.792,9.345,3.788,13.9313,69.24427,-25.18321,1750160397.3000894
623,20.766666666666666,0.517,8.705,1.961,-0.90076,76.19084,-24.17557,1750160397.3334227
624,20.8,-0.053,9.452,2.514,3.00763,76.66412,-18.69466,1750160397.366756
625,20.833333333333332,-0.22,9.687,2.205,23.0,64.70992,-16.12977,1750160397.4000893
626,20.866666666666667,-0.086,8.593,1.568,20.23664,53.84733,-14.17557,1750160397.4334226
627,20.9,-0.783,8.387,0.67,9.0916,53.05344,0.29008,1750160397.466756
628,20.933333333333334,-0.156,8.31,0.599,13.87023,48.0,7.61832,1750160397.5000894
629,20.966666666666665,1.559,10.06,0.757,-0.32824,46.35878,-1.26718,1750160397.5334227
630,21.0,0.263,10.221,1.798,-12.76336,48.06107,-8.1374,1750160397.566756
631,21.03333333333333,-1.015,9.318,1.226,2.9542,44.21374,2.44275,1750160397.6000893
632,21.066666666666666,-2.047,11.674,3.491,-36.55725,28.51908,-14.30534,1750160397.6334226
633,21.1,-2.784,15.589,2.954,-48.22137,-16.70229,-69.27481,1750160397.666756
634,21.133333333333333,2.138,10.173,4.35,46.93893,-6.52672,-52.41985,1750160397.7000895
635,21.166666666666668,4.247,5.794,4.492,14.9084,44.41221,-30.42748,1750160397.7334228
636,21.2,2.16,8.715,3.634,-30.56489,69.71756,-4.98473,1750160397.766756
637,21.233333333333334,-0.486,11.224,2.571,-7.96183,51.68702,-8.46565,1750160397.8000894
638,21.266666666666666,-1.918,9.304,2.535,5.12977,39.83206,0.16031,1750160397.8334227
639,21.3,-0.965,9.124,2.672,1.21374,26.58779,17.90076,1750160397.866756
640,21.333333333333332,0.376,9.158,2.739,14.15267,25.61832,12.69466,1750160397.9000893
641,21.366666666666667,0.548,8.487,2.325,18.17557,37.38931,1.66412,1750160397.9334226
642,21.4,-0.057,8.291,1.961,9.96947,36.54962,-15.94656,1750160397.966756
643,21.433333333333334,-0.97,8.461,1.384,1.44275,26.67176,-15.91603,1750160398.0000894
644,21.466666666666665,-0.804,8.938,0.718,-2.16794,14.65649,-13.60305,1750160398.0334227
645,21.5,-0.812,9.833,1.358,-12.8855,1.0229,-11.37405,1750160398.066756
646,21.53333333333333,0.417,11.028,2.241,-1.39695,18.24427,-8.33588,1750160398.1000893
647,21.566666666666666,0.905,10.716,1.463,-5.9542,35.58779,8.40458,1750160398.1334226
648,21.6,0.783,12.629,3.383,-33.0916,53.55725,34.68702,1750160398.166756
649,21.633333333333333,0.357,12.512,3.608,-23.07634,63.09924,29.89313,1750160398.2000895
650,21.666666666666668,-1.259,9.194,5.057,-6.35115,46.59542,-2.81679,1750160398.2334228
651,21.7,-0.67,7.848,4.623,-4.51908,26.90076,-7.07634,1750160398.266756
652,21.733333333333334,0.713,8.425,3.555,-19.05344,39.54198,19.18321,1750160398.3000894
653,21.766666666666666,1.693,10.156,2.878,-19.34351,51.37405,9.89313,1750160398.3334227
654,21.8,1.092,11.09,2.976,-11.62595,52.10687,-23.64885,1750160398.366756
655,21.833333333333332,0.512,10.278,1.918,1.43511,57.57252,-28.54962,1750160398.4000893
656,21.866666666666667,-0.338,9.055,2.255,8.03053,56.64885,-14.48855,1750160398.4334226
657,21.9,-1.063,8.835,2.061,10.98473,46.73282,-8.64885,1750160398.466756
658,21.933333333333334,0.084,9.237,1.422,14.28244,43.52672,-7.70992,1750160398.5000894
659,21.966666666666665,0.163,8.724,3.136,12.84733,43.24427,0.1374,1750160398.5334227
660,22.0,-0.285,8.456,0.68,8.22901,40.82443,7.81679,1750160398.566756
661,22.03333333333333,0.658,9.424,0.826,3.51145,41.80916,-0.00763,1750160398.6000893
662,22.066666666666666,0.742,10.709,1.7,-9.85496,39.70992,-15.87023,1750160398.6334226
663,22.1,-0.771,10.724,1.815,7.52672,22.98473,-16.31298,1750160398.666756
664,22.133333333333333,-2.085,11.983,3.39,-26.31298,6.9313,-30.25191,1750160398.7000895
665,22.166666666666668,-1.207,12.313,3.223,-15.89313,-10.32824,-45.57252,1750160398.7334228
666,22.2,1.966,9.457,3.759,12.12977,5.89313,-37.45802,1750160398.766756
667,22.233333333333334,2.358,8.049,3.534,18.21374,39.39695,-29.48855,1750160398.8000894
668,22.266666666666666,-0.12,9.024,3.232,8.84733,52.59542,-22.41985,1750160398.8334227
669,22.3,-1.439,10.262,2.909,6.65649,39.54962,-8.84733,1750160398.866756
670,22.333333333333332,-0.503,8.277,2.404,10.0916,37.12977,12.44275,1750160398.9000893
671,22.366666666666667,-0.39,10.259,3.069,-7.38168,43.68702,21.87023,1750160398.9334226
672,22.4,-0.378,10.451,2.471,22.45802,45.34351,8.08397,1750160398.966756
673,22.433333333333334,0.397,8.535,2.279,18.64885,51.9542,-9.28244,1750160399.0000894
674,22.466666666666665,0.852,8.554,1.772,6.80153,56.67939,-15.64885,1750160399.0334227
675,22.5,0.584,8.988,1.427,10.30534,61.75573,-19.56489,1750160399.066756
676,22.53333333333333,-0.4,8.952,1.137,5.67176,59.9771,-22.74809,1750160399.1000893
677,22.566666666666666,-1.587,9.179,0.96,-1.01527,43.60305,-24.10687,1750160399.1334226
678,22.6,-2.485,9.321,1.769,-5.91603,31.17557,-18.80153,1750160399.166756
679,22.633333333333333,-1.784,9.907,2.342,-6.35878,13.9771,-9.18321,1750160399.2000895
680,22.666666666666668,0.316,12.474,2.061,-36.84733,32.17557,24.1145,1750160399.2334228
681,22.7,0.316,12.474,2.061,-36.84733,32.17557,24.1145,1750160399.266756
682,22.733333333333334,0.79,13.355,3.915,-28.19847,59.35115,27.99237,1750160399.3000894
683,22.766666666666666,0.235,9.598,4.571,4.25191,62.0687,3.37405,1750160399.3334227
684,22.8,-1.053,7.202,4.506,6.58779,42.20611,-17.42748,1750160399.366756
685,22.833333333333332,-0.848,7.58,4.029,-18.29008,36.76336,1.55725,1750160399.4000893
686,22.866666666666667,0.819,10.278,3.108,-22.46565,45.18321,14.44275,1750160399.4334226
687,22.9,1.568,12.258,2.875,-8.89313,39.48092,-20.54962,1750160399.466756
688,22.933333333333334,0.201,10.846,2.248,8.82443,43.74046,-28.63359,1750160399.5000894
689,22.966666666666665,-0.589,9.005,1.757,19.14504,41.0229,-23.41985,1750160399.5334227
690,23.0,-0.766,8.358,1.915,14.32824,37.67939,-11.20611,1750160399.566756
691,23.03333333333333,0.072,8.93,0.352,26.31298,39.96947,-10.03817,1750160399.6000893
692,23.066666666666666,0.737,8.794,1.037,14.9313,35.92366,-1.87786,1750160399.6334226
693,23.1,-0.721,8.25,0.764,11.73282,28.56489,11.27481,1750160399.666756
694,23.133333333333333,0.28,8.305,0.467,6.39695,21.16031,6.52672,1750160399.7000895
695,23.166666666666668,1.583,10.685,1.324,-16.29008,22.83206,-7.26718,1750160399.7334228
696,23.2,0.139,10.898,2.519,-18.38931,12.07634,-22.20611,1750160399.766756
697,23.233333333333334,-1.346,10.477,1.911,-0.22901,1.89313,-15.80916,1750160399.8000894
698,23.266666666666666,-1.611,12.342,3.558,-35.52672,-19.75573,-30.51908,1750160399.8334227
699,23.3,0.704,12.713,4.039,-19.30534,-33.77099,-45.18321,1750160399.866756
700,23.333333333333332,2.55,9.558,3.895,16.70229,-3.16031,-28.94656,1750160399.9000893
701,23.366666666666667,2.073,7.738,3.788,11.22901,35.94656,-10.94656,1750160399.9334226
702,23.4,0.646,9.177,3.524,-3.85496,37.45038,-18.77863,1750160399.966756
703,23.433333333333334,-0.156,9.876,3.211,-1.57252,28.67939,-9.98473,1750160400.0000894
704,23.466666666666665,-1.144,9.057,2.538,-4.48855,20.35878,17.05344,1750160400.0334227
705,23.5,-0.982,10.032,2.641,-9.48092,6.38931,21.99237,1750160400.066756
706,23.53333333333333,1.156,9.811,1.528,10.55725,13.00763,15.55725,1750160400.1000893
707,23.566666666666666,1.022,8.894,2.483,11.40458,18.66412,5.10687,1750160400.1334226
708,23.6,0.539,9.072,1.951,17.81679,20.03053,-6.0687,1750160400.166756
709,23.633333333333333,-0.457,9.297,1.405,19.32824,15.61069,-7.9084,1750160400.2000895
710,23.666666666666668,-0.39,8.586,0.338,14.51908,-1.87786,-11.27481,1750160400.2334228
711,23.7,-0.409,8.404,0.304,-1.90076,-6.89313,-7.85496,1750160400.266756
712,23.733333333333334,-0.67,10.307,2.279,-15.43511,3.90076,2.0916,1750160400.3000894
713,23.766666666666666,0.448,10.218,0.826,-6.34351,11.0687,9.34351,1750160400.3334227
714,23.8,-0.668,11.296,2.808,-22.18321,0.96947,24.42748,1750160400.366756
715,23.833333333333332,1.573,12.11,5.021,-57.03817,24.38168,38.16031,1750160400.4000893
716,23.866666666666667,1.659,10.331,5.6,-14.70992,33.0916,25.0916,1750160400.4334226
717,23.9,-1.688,8.602,4.925,-5.49618,9.17557,9.44275,1750160400.466756
718,23.933333333333334,-0.098,10.444,3.572,-22.80153,2.73282,6.48092,1750160400.5000894
719,23.966666666666665,1.132,11.466,3.146,-13.18321,3.54198,-1.34351,1750160400.5334227
720,24.0,0.321,9.816,2.861,9.48092,2.29771,-4.58015,1750160400.566756
721,24.03333333333333,-0.244,8.741,2.274,3.8855,8.60305,-1.99237,1750160400.6000893
722,24.066666666666666,0.33,9.347,2.856,6.20611,12.53435,0.78626,1750160400.6334226
723,24.1,0.093,9.165,2.014,14.38931,8.26718,2.48092,1750160400.666756
724,24.133333333333333,-0.069,8.49,1.525,5.20611,2.91603,4.32824,1750160400.7000895
725,24.166666666666668,-0.764,8.037,0.936,2.61069,-4.48855,8.63359,1750160400.7334228
726,24.2,0.45,8.303,0.591,-4.93893,-8.40458,14.47328,1750160400.766756
727,24.233333333333334,2.483,10.836,1.302,-21.89313,-7.37405,11.53435,1750160400.8000894
728,24.266666666666666,-1.089,9.275,1.056,-6.27481,-8.71756,14.87786,1750160400.8334227
729,24.3,0.062,9.68,3.318,-9.32061,-11.51908,0.45802,1750160400.866756
730,24.333333333333332,-1.401,16.419,7.353,-52.84733,-52.67176,-93.64885,1750160400.9000893
731,24.366666666666667,0.01,10.104,2.5,45.74046,-53.03817,-94.07634,1750160400.9334226
732,24.4,2.045,5.143,3.486,7.25954,-28.06107,-39.18321,1750160400.966756
733,24.433333333333334,0.577,10.805,3.038,-32.25954,-17.8626,19.35115,1750160401.0000894
734,24.466666666666665,-3.168,13.652,4.946,24.1145,-56.72519,31.48855,1750160401.0334227
735,24.5,-4.966,10.422,3.651,41.84733,-104.05344,34.41985,1750160401.066756
736,24.53333333333333,-1.736,9.28,1.765,-1.54198,-136.85496,33.29008,1750160401.1000893
737,24.566666666666666,1.978,9.476,0.905,-9.68702,-104.71756,23.57252,1750160401.1334226
738,24.6,5.061,8.322,0.424,21.14504,-79.84733,-0.81679,1750160401.166756
739,24.633333333333333,1.817,8.526,1.642,11.01527,-58.41221,8.27481,1750160401.2000895
740,24.666666666666668,-0.089,9.641,1.693,4.47328,-70.99237,-6.65649,1750160401.2334228
741,24.7,0.254,9.687,2.15,-3.61069,-78.93893,-1.46565,1750160401.266756
742,24.733333333333334,0.172,11.155,4.223,-15.36641,-65.82443,21.62595,1750160401.3000894
743,24.766666666666666,2.658,12.055,2.698,12.18321,-65.67176,29.05344,1750160401.3334227
744,24.8,0.426,9.876,2.828,23.57252,-73.06107,21.91603,1750160401.366756
745,24.833333333333332,-0.907,7.489,1.889,14.80916,-95.23664,14.41221,1750160401.4000893
746,24.866666666666667,0.4,8.674,2.65,-13.70229,-92.8855,26.63359,1750160401.4334226
747,24.9,2.298,10.834,3.275,-2.44275,-79.54198,35.76336,1750160401.466756
748,24.933333333333334,2.885,9.888,2.928,16.29771,-66.15267,15.87786,1750160401.5000894
749,24.966666666666665,1.8,8.26,3.266,2.80916,-49.16031,3.23664,1750160401.5334227
750,25.0,1.061,9.038,3.127,-0.82443,-45.38931,3.09924,1750160401.566756
751,25.03333333333333,1.688,9.673,2.818,-4.0229,-40.0229,-0.0458,1750160401.6000893
752,25.066666666666666,2.085,10.096,2.828,0.31298,-32.12214,0.37405,1750160401.6334226
753,25.1,1.25,9.136,2.818,-0.67939,-34.0229,3.77863,1750160401.666756
754,25.133333333333333,1.317,8.887,2.772,-1.0,-42.10687,9.12214,1750160401.7000895
755,25.166666666666668,0.792,9.057,2.622,-5.43511,-42.69466,12.33588,1750160401.7334228
756,25.2,1.31,9.68,2.667,-6.03053,-46.48855,17.68702,1750160401.766756
757,25.233333333333334,1.369,9.797,2.375,-4.55725,-48.39695,18.82443,1750160401.8000894
758,25.266666666666666,1.377,9.234,2.739,-9.58015,-38.52672,16.00763,1750160401.8334227
759,25.3,0.939,9.869,2.55,-10.98473,-37.78626,12.48092,1750160401.866756
760,25.333333333333332,0.52,10.039,2.598,-3.9771,-37.42748,13.42748,1750160401.9000893
761,25.366666666666667,1.264,10.001,2.593,0.48855,-37.8855,11.22901,1750160401.9334226
